subjectID,prolificID,studyID,sessionID,DEBUG,trialIdx,trialSubmitTS,trialType,scaleID,scaleCategory,scaleText,scaleTextMin,scaleTextMax,comprehensionCheck,comprehensionCheckRequestedResponse,sliderStart,response,rt,timeElapsed
c1b3u1ydqp,66ccdb313b58971824e9244c,678f3deb09bb611973ef0351,6792750de74ce48af3be2a64,0,1,1737652262391,scale,3,demographic,How would you describe your political views?,Very conservative,Very liberal,0,,50,10,3787,504762
c1b3u1ydqp,66ccdb313b58971824e9244c,678f3deb09bb611973ef0351,6792750de74ce48af3be2a64,0,2,1737652267085,scale,23,personality,"I see myself as someone who...is depressed, blue",Strongly disagree,Strongly agree,0,,50,65,4692,509456
c1b3u1ydqp,66ccdb313b58971824e9244c,678f3deb09bb611973ef0351,6792750de74ce48af3be2a64,0,3,1737652269840,scale,44,personality,I see myself as someone who...is inventive,Strongly disagree,Strongly agree,0,,50,64,2753,512210
c1b3u1ydqp,66ccdb313b58971824e9244c,678f3deb09bb611973ef0351,6792750de74ce48af3be2a64,0,4,1737652273523,scale,19,face processing,I see myself as someone who...is responsible,Strongly disagree,Strongly agree,0,,50,80,3682,515894
c1b3u1ydqp,66ccdb313b58971824e9244c,678f3deb09bb611973ef0351,6792750de74ce48af3be2a64,0,6,1737652431380,scale,25,personality,I see myself as someone who...is reserved,Strongly disagree,Strongly agree,0,,50,88,18117,673750
c1b3u1ydqp,66ccdb313b58971824e9244c,678f3deb09bb611973ef0351,6792750de74ce48af3be2a64,0,7,1737652476231,scale,16,face processing,I see myself as someone who...is confident,Strongly disagree,Strongly agree,0,,50,87,44849,718602
c1b3u1ydqp,66ccdb313b58971824e9244c,678f3deb09bb611973ef0351,6792750de74ce48af3be2a64,0,8,1737652479735,scale,37,personality,I see myself as someone who...tends to be disorganized,Strongly disagree,Strongly agree,0,,50,39,3502,722106
c1b3u1ydqp,66ccdb313b58971824e9244c,678f3deb09bb611973ef0351,6792750de74ce48af3be2a64,0,9,1737652482608,scale,49,personality,"I see myself as someone who...values artistic, aesthetic experiences",Strongly disagree,Strongly agree,0,,50,84,2870,724979
c1b3u1ydqp,66ccdb313b58971824e9244c,678f3deb09bb611973ef0351,6792750de74ce48af3be2a64,0,10,1737652486362,scale,58,personality,I see myself as someone who...gets nervous easily,Strongly disagree,Strongly agree,0,,50,34,3753,728733
c1b3u1ydqp,66ccdb313b58971824e9244c,678f3deb09bb611973ef0351,6792750de74ce48af3be2a64,0,11,1737652516845,scale,62,personality,I see myself as someone who...is easily distracted,Strongly disagree,Strongly agree,0,,50,18,30482,759216
c1b3u1ydqp,66ccdb313b58971824e9244c,678f3deb09bb611973ef0351,6792750de74ce48af3be2a64,0,12,1737652519903,scale,35,personality,I see myself as someone who...generates a lot of enthusiasm,Strongly disagree,Strongly agree,0,,50,74,3055,762274
c1b3u1ydqp,66ccdb313b58971824e9244c,678f3deb09bb611973ef0351,6792750de74ce48af3be2a64,0,13,1737652522865,scale,31,personality,I see myself as someone who...starts quarrels with others,Strongly disagree,Strongly agree,0,,50,36,2961,765236
c1b3u1ydqp,66ccdb313b58971824e9244c,678f3deb09bb611973ef0351,6792750de74ce48af3be2a64,0,14,1737652525569,scale,30,personality,I see myself as someone who...is full of energy,Strongly disagree,Strongly agree,0,,50,90,2702,767940
c1b3u1ydqp,66ccdb313b58971824e9244c,678f3deb09bb611973ef0351,6792750de74ce48af3be2a64,0,15,1737652529085,scale,11,face processing,I see myself as someone who...is mean,Strongly disagree,Strongly agree,0,,50,82,3515,771456
c1b3u1ydqp,66ccdb313b58971824e9244c,678f3deb09bb611973ef0351,6792750de74ce48af3be2a64,0,16,1737652558871,scale,4,demographic,How important would you say religion is in your own life?,Not very important,Very important,0,,50,88,29784,801242
c1b3u1ydqp,66ccdb313b58971824e9244c,678f3deb09bb611973ef0351,6792750de74ce48af3be2a64,0,17,1737652562006,scale,14,face processing,I see myself as someone who...is weird,Strongly disagree,Strongly agree,0,,50,48,3133,804377
c1b3u1ydqp,66ccdb313b58971824e9244c,678f3deb09bb611973ef0351,6792750de74ce48af3be2a64,0,18,1737652564792,scale,15,face processing,I see myself as someone who...is intelligent,Strongly disagree,Strongly agree,0,,50,88,2784,807163
c1b3u1ydqp,66ccdb313b58971824e9244c,678f3deb09bb611973ef0351,6792750de74ce48af3be2a64,0,19,1737652570728,scale,12,face processing,I see myself as someone who...is boring,Strongly disagree,Strongly agree,0,,50,29,5935,813099
c1b3u1ydqp,66ccdb313b58971824e9244c,678f3deb09bb611973ef0351,6792750de74ce48af3be2a64,0,20,1737652573451,scale,55,personality,"I see myself as someone who...is outgoing, sociable",Strongly disagree,Strongly agree,0,,50,88,2721,815822
c1b3u1ydqp,66ccdb313b58971824e9244c,678f3deb09bb611973ef0351,6792750de74ce48af3be2a64,0,21,1737652576283,scale,51,personality,I see myself as someone who...is considerate and kind to almost everyone,Strongly disagree,Strongly agree,0,,50,59,2830,818654
c1b3u1ydqp,66ccdb313b58971824e9244c,678f3deb09bb611973ef0351,6792750de74ce48af3be2a64,0,23,1737652708413,scale,6,face processing,I see myself as someone who...is dominant,Strongly disagree,Strongly agree,0,,50,45,2842,950784
c1b3u1ydqp,66ccdb313b58971824e9244c,678f3deb09bb611973ef0351,6792750de74ce48af3be2a64,0,24,1737652710619,scale,50,personality,"I see myself as someone who...is sometimes shy, inhibited",Strongly disagree,Strongly agree,0,,50,48,2205,952990
c1b3u1ydqp,66ccdb313b58971824e9244c,678f3deb09bb611973ef0351,6792750de74ce48af3be2a64,0,25,1737652714685,scale,2,demographic,I consider myself as:,Not at all masculine,Totally masculine,0,,50,100,4065,957056
c1b3u1ydqp,66ccdb313b58971824e9244c,678f3deb09bb611973ef0351,6792750de74ce48af3be2a64,0,27,1737652847149,scale,29,personality,I see myself as someone who...is curious about many different things,Strongly disagree,Strongly agree,0,,50,80,3913,1089520
c1b3u1ydqp,66ccdb313b58971824e9244c,678f3deb09bb611973ef0351,6792750de74ce48af3be2a64,0,28,1737652908313,scale,26,personality,I see myself as someone who...is helpful and unselfish with others,Strongly disagree,Strongly agree,0,,50,65,61163,1150684
c1b3u1ydqp,66ccdb313b58971824e9244c,678f3deb09bb611973ef0351,6792750de74ce48af3be2a64,0,30,1737653054810,scale,53,personality,I see myself as someone who...remains calm in tense situations,Strongly disagree,Strongly agree,0,,50,66,7106,1297181
c1b3u1ydqp,66ccdb313b58971824e9244c,678f3deb09bb611973ef0351,6792750de74ce48af3be2a64,0,31,1737653056959,scale,39,personality,I see myself as someone who...has an active imagination,Strongly disagree,Strongly agree,0,,50,100,2147,1299330
c1b3u1ydqp,66ccdb313b58971824e9244c,678f3deb09bb611973ef0351,6792750de74ce48af3be2a64,0,32,1737653059244,scale,43,personality,"I see myself as someone who...is emotionally stable, not easily upset",Strongly disagree,Strongly agree,0,,50,76,2284,1301615
c1b3u1ydqp,66ccdb313b58971824e9244c,678f3deb09bb611973ef0351,6792750de74ce48af3be2a64,0,33,1737653062037,scale,13,face processing,I see myself as someone who...is aggressive,Strongly disagree,Strongly agree,0,,50,27,2791,1304408
c1b3u1ydqp,66ccdb313b58971824e9244c,678f3deb09bb611973ef0351,6792750de74ce48af3be2a64,0,34,1737653068325,scale,,ATTENTION CHECK,Please drag the slider all the way to the end labeled HAMBURGER,HOTDOG,HAMBURGER,1,100,50,100,6286,1310696
c1b3u1ydqp,66ccdb313b58971824e9244c,678f3deb09bb611973ef0351,6792750de74ce48af3be2a64,0,35,1737653070626,scale,20,personality,I see myself as someone who...is talkative,Strongly disagree,Strongly agree,0,,50,65,2300,1312996
c1b3u1ydqp,66ccdb313b58971824e9244c,678f3deb09bb611973ef0351,6792750de74ce48af3be2a64,0,36,1737653072873,scale,60,personality,I see myself as someone who...has few artistic interests,Strongly disagree,Strongly agree,0,,50,60,2246,1315244
c1b3u1ydqp,66ccdb313b58971824e9244c,678f3deb09bb611973ef0351,6792750de74ce48af3be2a64,0,38,1737653200620,scale,54,personality,I see myself as someone who...prefers work that is routine,Strongly disagree,Strongly agree,0,,50,75,3782,1442991
c1b3u1ydqp,66ccdb313b58971824e9244c,678f3deb09bb611973ef0351,6792750de74ce48af3be2a64,0,39,1737653202761,scale,17,face processing,I see myself as someone who...is caring,Strongly disagree,Strongly agree,0,,50,67,2140,1445132
c1b3u1ydqp,66ccdb313b58971824e9244c,678f3deb09bb611973ef0351,6792750de74ce48af3be2a64,0,40,1737653205238,scale,41,personality,I see myself as someone who...is generally trusting,Strongly disagree,Strongly agree,0,,50,84,2476,1447609
c1b3u1ydqp,66ccdb313b58971824e9244c,678f3deb09bb611973ef0351,6792750de74ce48af3be2a64,0,41,1737653209509,scale,59,personality,"I see myself as someone who...likes to reflect, play with ideas",Strongly disagree,Strongly agree,0,,50,85,4269,1451880
c1b3u1ydqp,66ccdb313b58971824e9244c,678f3deb09bb611973ef0351,6792750de74ce48af3be2a64,0,42,1737653212011,scale,40,personality,I see myself as someone who...tends to be quiet,Strongly disagree,Strongly agree,0,,50,81,2500,1454381
c1b3u1ydqp,66ccdb313b58971824e9244c,678f3deb09bb611973ef0351,6792750de74ce48af3be2a64,0,43,1737653214379,scale,61,personality,I see myself as someone who...likes to cooperate with others,Strongly disagree,Strongly agree,0,,50,84,2366,1456750
c1b3u1ydqp,66ccdb313b58971824e9244c,678f3deb09bb611973ef0351,6792750de74ce48af3be2a64,0,44,1737653216851,scale,36,personality,I see myself as someone who...has a forgiving nature,Strongly disagree,Strongly agree,0,,50,91,2471,1459222
c1b3u1ydqp,66ccdb313b58971824e9244c,678f3deb09bb611973ef0351,6792750de74ce48af3be2a64,0,45,1737653219516,scale,63,personality,"I see myself as someone who...is sophisticated in art, music, or literature",Strongly disagree,Strongly agree,0,,50,87,2663,1461887
c1b3u1ydqp,66ccdb313b58971824e9244c,678f3deb09bb611973ef0351,6792750de74ce48af3be2a64,0,46,1737653222000,scale,33,personality,I see myself as someone who...can be tense,Strongly disagree,Strongly agree,0,,50,67,2483,1464371
c1b3u1ydqp,66ccdb313b58971824e9244c,678f3deb09bb611973ef0351,6792750de74ce48af3be2a64,0,47,1737653226520,scale,56,personality,I see myself as someone who...is sometimes rude to others,Strongly disagree,Strongly agree,0,,50,39,4518,1468891
c1b3u1ydqp,66ccdb313b58971824e9244c,678f3deb09bb611973ef0351,6792750de74ce48af3be2a64,0,48,1737653230641,scale,38,personality,I see myself as someone who...worries a lot,Strongly disagree,Strongly agree,0,,50,32,4120,1473012
c1b3u1ydqp,66ccdb313b58971824e9244c,678f3deb09bb611973ef0351,6792750de74ce48af3be2a64,0,49,1737653236419,scale,,ATTENTION CHECK,Please drag the slider all the way to the end labeled STRAWBERRY,STRAWBERRY,PINEAPPLE,1,0,50,0,5776,1478790
c1b3u1ydqp,66ccdb313b58971824e9244c,678f3deb09bb611973ef0351,6792750de74ce48af3be2a64,0,50,1737653239321,scale,28,personality,"I see myself as someone who...is relaxed, handles stress well",Strongly disagree,Strongly agree,0,,50,74,2901,1481692
c1b3u1ydqp,66ccdb313b58971824e9244c,678f3deb09bb611973ef0351,6792750de74ce48af3be2a64,0,51,1737653242176,scale,5,face processing,I see myself as someone who...is trustworthy,Strongly disagree,Strongly agree,0,,50,87,2854,1484547
c1b3u1ydqp,66ccdb313b58971824e9244c,678f3deb09bb611973ef0351,6792750de74ce48af3be2a64,0,52,1737653246687,scale,34,personality,"I see myself as someone who...is ingenious, a deep thinker",Strongly disagree,Strongly agree,0,,50,69,4510,1489058
c1b3u1ydqp,66ccdb313b58971824e9244c,678f3deb09bb611973ef0351,6792750de74ce48af3be2a64,0,53,1737653249789,scale,32,personality,I see myself as someone who...is a reliable worker,Strongly disagree,Strongly agree,0,,50,61,3100,1492160
c1b3u1ydqp,66ccdb313b58971824e9244c,678f3deb09bb611973ef0351,6792750de74ce48af3be2a64,0,54,1737653252521,scale,42,personality,I see myself as someone who...tends to be lazy,Strongly disagree,Strongly agree,0,,50,44,2731,1494892
c1b3u1ydqp,66ccdb313b58971824e9244c,678f3deb09bb611973ef0351,6792750de74ce48af3be2a64,0,55,1737653254777,scale,52,personality,I see myself as someone who...does things efficiently,Strongly disagree,Strongly agree,0,,50,79,2254,1497148
c1b3u1ydqp,66ccdb313b58971824e9244c,678f3deb09bb611973ef0351,6792750de74ce48af3be2a64,0,56,1737653258198,scale,27,personality,I see myself as someone who...can be somewhat careless,Strongly disagree,Strongly agree,0,,50,6,3419,1500569
c1b3u1ydqp,66ccdb313b58971824e9244c,678f3deb09bb611973ef0351,6792750de74ce48af3be2a64,0,57,1737653260866,scale,46,personality,I see myself as someone who...can be cold and aloof,Strongly disagree,Strongly agree,0,,50,16,2667,1503237
c1b3u1ydqp,66ccdb313b58971824e9244c,678f3deb09bb611973ef0351,6792750de74ce48af3be2a64,0,58,1737653263476,scale,57,personality,I see myself as someone who...makes plans and follows through with them,Strongly disagree,Strongly agree,0,,50,70,2608,1505847
c1b3u1ydqp,66ccdb313b58971824e9244c,678f3deb09bb611973ef0351,6792750de74ce48af3be2a64,0,59,1737653266567,scale,21,personality,I see myself as someone who...tends to find fault with others,Strongly disagree,Strongly agree,0,,50,16,3089,1508938
c1b3u1ydqp,66ccdb313b58971824e9244c,678f3deb09bb611973ef0351,6792750de74ce48af3be2a64,0,60,1737653269028,scale,48,personality,I see myself as someone who...can be moody,Strongly disagree,Strongly agree,0,,50,51,2459,1511399
c1b3u1ydqp,66ccdb313b58971824e9244c,678f3deb09bb611973ef0351,6792750de74ce48af3be2a64,0,61,1737653271118,scale,47,personality,I see myself as someone who...perseveres until the task is finished,Strongly disagree,Strongly agree,0,,50,64,2089,1513489
c1b3u1ydqp,66ccdb313b58971824e9244c,678f3deb09bb611973ef0351,6792750de74ce48af3be2a64,0,62,1737653273930,scale,8,face processing,I see myself as someone who...is unhappy,Strongly disagree,Strongly agree,0,,50,35,2810,1516301
c1b3u1ydqp,66ccdb313b58971824e9244c,678f3deb09bb611973ef0351,6792750de74ce48af3be2a64,0,64,1737653455720,scale,1,demographic,I consider myself as:,Not at all feminine,Totally feminine,0,,50,0,7661,1698091
c1b3u1ydqp,66ccdb313b58971824e9244c,678f3deb09bb611973ef0351,6792750de74ce48af3be2a64,0,65,1737653458126,scale,22,personality,I see myself as someone who...does a thorough job,Strongly disagree,Strongly agree,0,,50,40,2405,1700497
c1b3u1ydqp,66ccdb313b58971824e9244c,678f3deb09bb611973ef0351,6792750de74ce48af3be2a64,0,66,1737653461927,scale,18,face processing,I see myself as someone who...is egotistic,Strongly disagree,Strongly agree,0,,50,32,3800,1704298
c1b3u1ydqp,66ccdb313b58971824e9244c,678f3deb09bb611973ef0351,6792750de74ce48af3be2a64,0,67,1737653477816,scale,45,personality,I see myself as someone who...has an assertive personality,Strongly disagree,Strongly agree,0,,50,74,15886,1720187
c1b3u1ydqp,66ccdb313b58971824e9244c,678f3deb09bb611973ef0351,6792750de74ce48af3be2a64,0,68,1737653487721,scale,24,personality,"I see myself as someone who...is original, comes up with new ideas",Strongly disagree,Strongly agree,0,,50,87,9904,1730092
53a7trj0ux,5cdd4befd3651c001950e539,678f3deb09bb611973ef0351,67927436a039c0132dd9fd3c,0,1,1737651361433,scale,24,personality,"I see myself as someone who...is original, comes up with new ideas",Strongly disagree,Strongly agree,0,,50,37,11289,100756
53a7trj0ux,5cdd4befd3651c001950e539,678f3deb09bb611973ef0351,67927436a039c0132dd9fd3c,0,2,1737651366165,scale,45,personality,I see myself as someone who...has an assertive personality,Strongly disagree,Strongly agree,0,,50,15,4727,105487
53a7trj0ux,5cdd4befd3651c001950e539,678f3deb09bb611973ef0351,67927436a039c0132dd9fd3c,0,3,1737651371616,scale,1,demographic,I consider myself as:,Not at all feminine,Totally feminine,0,,50,67,5448,110939
53a7trj0ux,5cdd4befd3651c001950e539,678f3deb09bb611973ef0351,67927436a039c0132dd9fd3c,0,4,1737651376825,scale,11,face processing,I see myself as someone who...is mean,Strongly disagree,Strongly agree,0,,50,8,5204,116147
53a7trj0ux,5cdd4befd3651c001950e539,678f3deb09bb611973ef0351,67927436a039c0132dd9fd3c,0,5,1737651382524,scale,12,face processing,I see myself as someone who...is boring,Strongly disagree,Strongly agree,0,,50,60,5695,121847
53a7trj0ux,5cdd4befd3651c001950e539,678f3deb09bb611973ef0351,67927436a039c0132dd9fd3c,0,6,1737651390256,scale,50,personality,"I see myself as someone who...is sometimes shy, inhibited",Strongly disagree,Strongly agree,0,,50,65,7728,129579
53a7trj0ux,5cdd4befd3651c001950e539,678f3deb09bb611973ef0351,67927436a039c0132dd9fd3c,0,7,1737651396708,scale,56,personality,I see myself as someone who...is sometimes rude to others,Strongly disagree,Strongly agree,0,,50,6,6448,136031
53a7trj0ux,5cdd4befd3651c001950e539,678f3deb09bb611973ef0351,67927436a039c0132dd9fd3c,0,8,1737651404842,scale,,ATTENTION CHECK,Please drag the slider all the way to the end labeled STRAWBERRY,STRAWBERRY,PINEAPPLE,1,0,50,0,8129,144164
53a7trj0ux,5cdd4befd3651c001950e539,678f3deb09bb611973ef0351,67927436a039c0132dd9fd3c,0,9,1737651411372,scale,18,face processing,I see myself as someone who...is egotistic,Strongly disagree,Strongly agree,0,,50,0,6526,150695
53a7trj0ux,5cdd4befd3651c001950e539,678f3deb09bb611973ef0351,67927436a039c0132dd9fd3c,0,10,1737651416401,scale,21,personality,I see myself as someone who...tends to find fault with others,Strongly disagree,Strongly agree,0,,50,58,5024,155723
53a7trj0ux,5cdd4befd3651c001950e539,678f3deb09bb611973ef0351,67927436a039c0132dd9fd3c,0,12,1737651553336,scale,14,face processing,I see myself as someone who...is weird,Strongly disagree,Strongly agree,0,,50,0,5902,292659
53a7trj0ux,5cdd4befd3651c001950e539,678f3deb09bb611973ef0351,67927436a039c0132dd9fd3c,0,13,1737651562129,scale,51,personality,I see myself as someone who...is considerate and kind to almost everyone,Strongly disagree,Strongly agree,0,,50,71,8789,301451
53a7trj0ux,5cdd4befd3651c001950e539,678f3deb09bb611973ef0351,67927436a039c0132dd9fd3c,0,14,1737651567513,scale,52,personality,I see myself as someone who...does things efficiently,Strongly disagree,Strongly agree,0,,50,74,5379,306835
53a7trj0ux,5cdd4befd3651c001950e539,678f3deb09bb611973ef0351,67927436a039c0132dd9fd3c,0,15,1737651574120,scale,3,demographic,How would you describe your political views?,Very conservative,Very liberal,0,,50,69,6604,313443
53a7trj0ux,5cdd4befd3651c001950e539,678f3deb09bb611973ef0351,67927436a039c0132dd9fd3c,0,16,1737651579128,scale,35,personality,I see myself as someone who...generates a lot of enthusiasm,Strongly disagree,Strongly agree,0,,50,14,5003,318451
53a7trj0ux,5cdd4befd3651c001950e539,678f3deb09bb611973ef0351,67927436a039c0132dd9fd3c,0,17,1737651585088,scale,37,personality,I see myself as someone who...tends to be disorganized,Strongly disagree,Strongly agree,0,,50,0,5956,324411
53a7trj0ux,5cdd4befd3651c001950e539,678f3deb09bb611973ef0351,67927436a039c0132dd9fd3c,0,19,1737651736188,scale,40,personality,I see myself as someone who...tends to be quiet,Strongly disagree,Strongly agree,0,,50,69,5919,475510
53a7trj0ux,5cdd4befd3651c001950e539,678f3deb09bb611973ef0351,67927436a039c0132dd9fd3c,0,20,1737651740215,scale,19,face processing,I see myself as someone who...is responsible,Strongly disagree,Strongly agree,0,,50,98,4024,479538
53a7trj0ux,5cdd4befd3651c001950e539,678f3deb09bb611973ef0351,67927436a039c0132dd9fd3c,0,21,1737651743803,scale,38,personality,I see myself as someone who...worries a lot,Strongly disagree,Strongly agree,0,,50,59,3584,483126
53a7trj0ux,5cdd4befd3651c001950e539,678f3deb09bb611973ef0351,67927436a039c0132dd9fd3c,0,22,1737651747368,scale,6,face processing,I see myself as someone who...is dominant,Strongly disagree,Strongly agree,0,,50,6,3560,486690
53a7trj0ux,5cdd4befd3651c001950e539,678f3deb09bb611973ef0351,67927436a039c0132dd9fd3c,0,23,1737651751879,scale,27,personality,I see myself as someone who...can be somewhat careless,Strongly disagree,Strongly agree,0,,50,1,4508,491202
53a7trj0ux,5cdd4befd3651c001950e539,678f3deb09bb611973ef0351,67927436a039c0132dd9fd3c,0,24,1737651756383,scale,29,personality,I see myself as someone who...is curious about many different things,Strongly disagree,Strongly agree,0,,50,75,4500,495706
53a7trj0ux,5cdd4befd3651c001950e539,678f3deb09bb611973ef0351,67927436a039c0132dd9fd3c,0,25,1737651763544,scale,43,personality,"I see myself as someone who...is emotionally stable, not easily upset",Strongly disagree,Strongly agree,0,,50,42,7156,502866
53a7trj0ux,5cdd4befd3651c001950e539,678f3deb09bb611973ef0351,67927436a039c0132dd9fd3c,0,26,1737651771283,scale,63,personality,"I see myself as someone who...is sophisticated in art, music, or literature",Strongly disagree,Strongly agree,0,,50,37,7736,510606
53a7trj0ux,5cdd4befd3651c001950e539,678f3deb09bb611973ef0351,67927436a039c0132dd9fd3c,0,27,1737651775139,scale,23,personality,"I see myself as someone who...is depressed, blue",Strongly disagree,Strongly agree,0,,50,10,3852,514462
53a7trj0ux,5cdd4befd3651c001950e539,678f3deb09bb611973ef0351,67927436a039c0132dd9fd3c,0,28,1737651780240,scale,26,personality,I see myself as someone who...is helpful and unselfish with others,Strongly disagree,Strongly agree,0,,50,56,5097,519563
53a7trj0ux,5cdd4befd3651c001950e539,678f3deb09bb611973ef0351,67927436a039c0132dd9fd3c,0,29,1737651785131,scale,16,face processing,I see myself as someone who...is confident,Strongly disagree,Strongly agree,0,,50,9,4888,524454
53a7trj0ux,5cdd4befd3651c001950e539,678f3deb09bb611973ef0351,67927436a039c0132dd9fd3c,0,30,1737651791527,scale,54,personality,I see myself as someone who...prefers work that is routine,Strongly disagree,Strongly agree,0,,50,79,6392,530850
53a7trj0ux,5cdd4befd3651c001950e539,678f3deb09bb611973ef0351,67927436a039c0132dd9fd3c,0,31,1737651800135,scale,46,personality,I see myself as someone who...can be cold and aloof,Strongly disagree,Strongly agree,0,,50,58,8604,539458
53a7trj0ux,5cdd4befd3651c001950e539,678f3deb09bb611973ef0351,67927436a039c0132dd9fd3c,0,32,1737651803691,scale,5,face processing,I see myself as someone who...is trustworthy,Strongly disagree,Strongly agree,0,,50,100,3552,543014
53a7trj0ux,5cdd4befd3651c001950e539,678f3deb09bb611973ef0351,67927436a039c0132dd9fd3c,0,33,1737651807995,scale,39,personality,I see myself as someone who...has an active imagination,Strongly disagree,Strongly agree,0,,50,30,4301,547318
53a7trj0ux,5cdd4befd3651c001950e539,678f3deb09bb611973ef0351,67927436a039c0132dd9fd3c,0,34,1737651815127,scale,48,personality,I see myself as someone who...can be moody,Strongly disagree,Strongly agree,0,,50,38,7129,554450
53a7trj0ux,5cdd4befd3651c001950e539,678f3deb09bb611973ef0351,67927436a039c0132dd9fd3c,0,35,1737651820863,scale,62,personality,I see myself as someone who...is easily distracted,Strongly disagree,Strongly agree,0,,50,61,5733,560186
53a7trj0ux,5cdd4befd3651c001950e539,678f3deb09bb611973ef0351,67927436a039c0132dd9fd3c,0,36,1737651825663,scale,47,personality,I see myself as someone who...perseveres until the task is finished,Strongly disagree,Strongly agree,0,,50,100,4796,564986
53a7trj0ux,5cdd4befd3651c001950e539,678f3deb09bb611973ef0351,67927436a039c0132dd9fd3c,0,37,1737651830264,scale,55,personality,"I see myself as someone who...is outgoing, sociable",Strongly disagree,Strongly agree,0,,50,31,4596,569586
53a7trj0ux,5cdd4befd3651c001950e539,678f3deb09bb611973ef0351,67927436a039c0132dd9fd3c,0,38,1737651836667,scale,15,face processing,I see myself as someone who...is intelligent,Strongly disagree,Strongly agree,0,,50,62,6400,575990
53a7trj0ux,5cdd4befd3651c001950e539,678f3deb09bb611973ef0351,67927436a039c0132dd9fd3c,0,39,1737651840527,scale,25,personality,I see myself as someone who...is reserved,Strongly disagree,Strongly agree,0,,50,83,3856,579850
53a7trj0ux,5cdd4befd3651c001950e539,678f3deb09bb611973ef0351,67927436a039c0132dd9fd3c,0,40,1737651844079,scale,30,personality,I see myself as someone who...is full of energy,Strongly disagree,Strongly agree,0,,50,15,3548,583402
53a7trj0ux,5cdd4befd3651c001950e539,678f3deb09bb611973ef0351,67927436a039c0132dd9fd3c,0,41,1737651848667,scale,44,personality,I see myself as someone who...is inventive,Strongly disagree,Strongly agree,0,,50,38,4585,587990
53a7trj0ux,5cdd4befd3651c001950e539,678f3deb09bb611973ef0351,67927436a039c0132dd9fd3c,0,43,1737651976579,scale,57,personality,I see myself as someone who...makes plans and follows through with them,Strongly disagree,Strongly agree,0,,50,84,6504,715902
53a7trj0ux,5cdd4befd3651c001950e539,678f3deb09bb611973ef0351,67927436a039c0132dd9fd3c,0,44,1737651981279,scale,22,personality,I see myself as someone who...does a thorough job,Strongly disagree,Strongly agree,0,,50,97,4696,720602
53a7trj0ux,5cdd4befd3651c001950e539,678f3deb09bb611973ef0351,67927436a039c0132dd9fd3c,0,45,1737651989491,scale,53,personality,I see myself as someone who...remains calm in tense situations,Strongly disagree,Strongly agree,0,,50,61,8208,728814
53a7trj0ux,5cdd4befd3651c001950e539,678f3deb09bb611973ef0351,67927436a039c0132dd9fd3c,0,46,1737651994683,scale,49,personality,"I see myself as someone who...values artistic, aesthetic experiences",Strongly disagree,Strongly agree,0,,50,91,5188,734006
53a7trj0ux,5cdd4befd3651c001950e539,678f3deb09bb611973ef0351,67927436a039c0132dd9fd3c,0,47,1737651999187,scale,31,personality,I see myself as someone who...starts quarrels with others,Strongly disagree,Strongly agree,0,,50,7,4500,738510
53a7trj0ux,5cdd4befd3651c001950e539,678f3deb09bb611973ef0351,67927436a039c0132dd9fd3c,0,48,1737652007083,scale,20,personality,I see myself as someone who...is talkative,Strongly disagree,Strongly agree,0,,50,46,7892,746405
53a7trj0ux,5cdd4befd3651c001950e539,678f3deb09bb611973ef0351,67927436a039c0132dd9fd3c,0,49,1737652010443,scale,32,personality,I see myself as someone who...is a reliable worker,Strongly disagree,Strongly agree,0,,50,100,3357,749766
53a7trj0ux,5cdd4befd3651c001950e539,678f3deb09bb611973ef0351,67927436a039c0132dd9fd3c,0,50,1737652013571,scale,13,face processing,I see myself as someone who...is aggressive,Strongly disagree,Strongly agree,0,,50,1,3124,752894
53a7trj0ux,5cdd4befd3651c001950e539,678f3deb09bb611973ef0351,67927436a039c0132dd9fd3c,0,53,1737652321394,scale,33,personality,I see myself as someone who...can be tense,Strongly disagree,Strongly agree,0,,50,65,4739,1060717
53a7trj0ux,5cdd4befd3651c001950e539,678f3deb09bb611973ef0351,67927436a039c0132dd9fd3c,0,54,1737652325414,scale,36,personality,I see myself as someone who...has a forgiving nature,Strongly disagree,Strongly agree,0,,50,30,4016,1064737
53a7trj0ux,5cdd4befd3651c001950e539,678f3deb09bb611973ef0351,67927436a039c0132dd9fd3c,0,55,1737652330266,scale,4,demographic,How important would you say religion is in your own life?,Not very important,Very important,0,,50,0,4848,1069589
53a7trj0ux,5cdd4befd3651c001950e539,678f3deb09bb611973ef0351,67927436a039c0132dd9fd3c,0,56,1737652334842,scale,42,personality,I see myself as someone who...tends to be lazy,Strongly disagree,Strongly agree,0,,50,15,4572,1074165
53a7trj0ux,5cdd4befd3651c001950e539,678f3deb09bb611973ef0351,67927436a039c0132dd9fd3c,0,57,1737652339502,scale,61,personality,I see myself as someone who...likes to cooperate with others,Strongly disagree,Strongly agree,0,,50,81,4657,1078825
53a7trj0ux,5cdd4befd3651c001950e539,678f3deb09bb611973ef0351,67927436a039c0132dd9fd3c,0,58,1737652344510,scale,60,personality,I see myself as someone who...has few artistic interests,Strongly disagree,Strongly agree,0,,50,24,5004,1083833
53a7trj0ux,5cdd4befd3651c001950e539,678f3deb09bb611973ef0351,67927436a039c0132dd9fd3c,0,59,1737652349362,scale,,ATTENTION CHECK,Please drag the slider all the way to the end labeled HAMBURGER,HOTDOG,HAMBURGER,1,100,50,100,4848,1088685
53a7trj0ux,5cdd4befd3651c001950e539,678f3deb09bb611973ef0351,67927436a039c0132dd9fd3c,0,60,1737652355122,scale,34,personality,"I see myself as someone who...is ingenious, a deep thinker",Strongly disagree,Strongly agree,0,,50,28,5756,1094445
53a7trj0ux,5cdd4befd3651c001950e539,678f3deb09bb611973ef0351,67927436a039c0132dd9fd3c,0,62,1737652495834,scale,59,personality,"I see myself as someone who...likes to reflect, play with ideas",Strongly disagree,Strongly agree,0,,50,69,10945,1235157
53a7trj0ux,5cdd4befd3651c001950e539,678f3deb09bb611973ef0351,67927436a039c0132dd9fd3c,0,63,1737652498966,scale,17,face processing,I see myself as someone who...is caring,Strongly disagree,Strongly agree,0,,50,79,3127,1238289
53a7trj0ux,5cdd4befd3651c001950e539,678f3deb09bb611973ef0351,67927436a039c0132dd9fd3c,0,64,1737652504774,scale,2,demographic,I consider myself as:,Not at all masculine,Totally masculine,0,,50,12,5804,1244096
53a7trj0ux,5cdd4befd3651c001950e539,678f3deb09bb611973ef0351,67927436a039c0132dd9fd3c,0,65,1737652511082,scale,28,personality,"I see myself as someone who...is relaxed, handles stress well",Strongly disagree,Strongly agree,0,,50,56,6304,1250404
53a7trj0ux,5cdd4befd3651c001950e539,678f3deb09bb611973ef0351,67927436a039c0132dd9fd3c,0,66,1737652515426,scale,41,personality,I see myself as someone who...is generally trusting,Strongly disagree,Strongly agree,0,,50,79,4340,1254749
53a7trj0ux,5cdd4befd3651c001950e539,678f3deb09bb611973ef0351,67927436a039c0132dd9fd3c,0,67,1737652519759,scale,8,face processing,I see myself as someone who...is unhappy,Strongly disagree,Strongly agree,0,,50,0,4329,1259082
53a7trj0ux,5cdd4befd3651c001950e539,678f3deb09bb611973ef0351,67927436a039c0132dd9fd3c,0,68,1737652524406,scale,58,personality,I see myself as someone who...gets nervous easily,Strongly disagree,Strongly agree,0,,50,57,4643,1263729
rjwdrr4qa4,58064d91f25c440001678a10,678f3deb09bb611973ef0351,6792746d8de5d2be176d6b63,0,1,1737651367693,scale,11,face processing,I see myself as someone who...is mean,Strongly disagree,Strongly agree,0,,50,0,5160,48644
rjwdrr4qa4,58064d91f25c440001678a10,678f3deb09bb611973ef0351,6792746d8de5d2be176d6b63,0,2,1737651373139,scale,54,personality,I see myself as someone who...prefers work that is routine,Strongly disagree,Strongly agree,0,,50,56,5445,54090
rjwdrr4qa4,58064d91f25c440001678a10,678f3deb09bb611973ef0351,6792746d8de5d2be176d6b63,0,3,1737651376941,scale,37,personality,I see myself as someone who...tends to be disorganized,Strongly disagree,Strongly agree,0,,50,1,3801,57892
rjwdrr4qa4,58064d91f25c440001678a10,678f3deb09bb611973ef0351,6792746d8de5d2be176d6b63,0,4,1737651379933,scale,19,face processing,I see myself as someone who...is responsible,Strongly disagree,Strongly agree,0,,50,100,2991,60884
rjwdrr4qa4,58064d91f25c440001678a10,678f3deb09bb611973ef0351,6792746d8de5d2be176d6b63,0,5,1737651383250,scale,56,personality,I see myself as someone who...is sometimes rude to others,Strongly disagree,Strongly agree,0,,50,16,3316,64201
rjwdrr4qa4,58064d91f25c440001678a10,678f3deb09bb611973ef0351,6792746d8de5d2be176d6b63,0,6,1737651386338,scale,58,personality,I see myself as someone who...gets nervous easily,Strongly disagree,Strongly agree,0,,50,4,3087,67289
rjwdrr4qa4,58064d91f25c440001678a10,678f3deb09bb611973ef0351,6792746d8de5d2be176d6b63,0,7,1737651389765,scale,31,personality,I see myself as someone who...starts quarrels with others,Strongly disagree,Strongly agree,0,,50,11,3426,70716
rjwdrr4qa4,58064d91f25c440001678a10,678f3deb09bb611973ef0351,6792746d8de5d2be176d6b63,0,9,1737651516598,scale,28,personality,"I see myself as someone who...is relaxed, handles stress well",Strongly disagree,Strongly agree,0,,50,98,5146,197549
rjwdrr4qa4,58064d91f25c440001678a10,678f3deb09bb611973ef0351,6792746d8de5d2be176d6b63,0,10,1737651519961,scale,57,personality,I see myself as someone who...makes plans and follows through with them,Strongly disagree,Strongly agree,0,,50,100,3362,200912
rjwdrr4qa4,58064d91f25c440001678a10,678f3deb09bb611973ef0351,6792746d8de5d2be176d6b63,0,11,1737651523601,scale,52,personality,I see myself as someone who...does things efficiently,Strongly disagree,Strongly agree,0,,50,80,3640,204552
rjwdrr4qa4,58064d91f25c440001678a10,678f3deb09bb611973ef0351,6792746d8de5d2be176d6b63,0,12,1737651528318,scale,,ATTENTION CHECK,Please drag the slider all the way to the end labeled STRAWBERRY,STRAWBERRY,PINEAPPLE,1,0,50,0,4716,209269
rjwdrr4qa4,58064d91f25c440001678a10,678f3deb09bb611973ef0351,6792746d8de5d2be176d6b63,0,13,1737651533376,scale,12,face processing,I see myself as someone who...is boring,Strongly disagree,Strongly agree,0,,50,18,5057,214327
rjwdrr4qa4,58064d91f25c440001678a10,678f3deb09bb611973ef0351,6792746d8de5d2be176d6b63,0,14,1737651536200,scale,45,personality,I see myself as someone who...has an assertive personality,Strongly disagree,Strongly agree,0,,50,58,2822,217151
rjwdrr4qa4,58064d91f25c440001678a10,678f3deb09bb611973ef0351,6792746d8de5d2be176d6b63,0,15,1737651539394,scale,59,personality,"I see myself as someone who...likes to reflect, play with ideas",Strongly disagree,Strongly agree,0,,50,59,3193,220345
rjwdrr4qa4,58064d91f25c440001678a10,678f3deb09bb611973ef0351,6792746d8de5d2be176d6b63,0,16,1737651542389,scale,63,personality,"I see myself as someone who...is sophisticated in art, music, or literature",Strongly disagree,Strongly agree,0,,50,94,2994,223340
rjwdrr4qa4,58064d91f25c440001678a10,678f3deb09bb611973ef0351,6792746d8de5d2be176d6b63,0,17,1737651544918,scale,35,personality,I see myself as someone who...generates a lot of enthusiasm,Strongly disagree,Strongly agree,0,,50,65,2528,225869
rjwdrr4qa4,58064d91f25c440001678a10,678f3deb09bb611973ef0351,6792746d8de5d2be176d6b63,0,18,1737651548009,scale,16,face processing,I see myself as someone who...is confident,Strongly disagree,Strongly agree,0,,50,88,3090,228960
rjwdrr4qa4,58064d91f25c440001678a10,678f3deb09bb611973ef0351,6792746d8de5d2be176d6b63,0,19,1737651551428,scale,21,personality,I see myself as someone who...tends to find fault with others,Strongly disagree,Strongly agree,0,,50,16,3419,232379
rjwdrr4qa4,58064d91f25c440001678a10,678f3deb09bb611973ef0351,6792746d8de5d2be176d6b63,0,20,1737651554072,scale,39,personality,I see myself as someone who...has an active imagination,Strongly disagree,Strongly agree,0,,50,100,2643,235023
rjwdrr4qa4,58064d91f25c440001678a10,678f3deb09bb611973ef0351,6792746d8de5d2be176d6b63,0,22,1737651682267,scale,17,face processing,I see myself as someone who...is caring,Strongly disagree,Strongly agree,0,,50,100,3297,363218
rjwdrr4qa4,58064d91f25c440001678a10,678f3deb09bb611973ef0351,6792746d8de5d2be176d6b63,0,23,1737651684803,scale,2,demographic,I consider myself as:,Not at all masculine,Totally masculine,0,,50,100,2535,365754
rjwdrr4qa4,58064d91f25c440001678a10,678f3deb09bb611973ef0351,6792746d8de5d2be176d6b63,0,24,1737651687324,scale,40,personality,I see myself as someone who...tends to be quiet,Strongly disagree,Strongly agree,0,,50,22,2520,368275
rjwdrr4qa4,58064d91f25c440001678a10,678f3deb09bb611973ef0351,6792746d8de5d2be176d6b63,0,25,1737651689841,scale,13,face processing,I see myself as someone who...is aggressive,Strongly disagree,Strongly agree,0,,50,64,2516,370792
rjwdrr4qa4,58064d91f25c440001678a10,678f3deb09bb611973ef0351,6792746d8de5d2be176d6b63,0,26,1737651693279,scale,46,personality,I see myself as someone who...can be cold and aloof,Strongly disagree,Strongly agree,0,,50,30,3437,374230
rjwdrr4qa4,58064d91f25c440001678a10,678f3deb09bb611973ef0351,6792746d8de5d2be176d6b63,0,27,1737651696013,scale,50,personality,"I see myself as someone who...is sometimes shy, inhibited",Strongly disagree,Strongly agree,0,,50,8,2733,376963
rjwdrr4qa4,58064d91f25c440001678a10,678f3deb09bb611973ef0351,6792746d8de5d2be176d6b63,0,28,1737651698667,scale,15,face processing,I see myself as someone who...is intelligent,Strongly disagree,Strongly agree,0,,50,95,2654,379618
rjwdrr4qa4,58064d91f25c440001678a10,678f3deb09bb611973ef0351,6792746d8de5d2be176d6b63,0,29,1737651701849,scale,51,personality,I see myself as someone who...is considerate and kind to almost everyone,Strongly disagree,Strongly agree,0,,50,93,3182,382800
rjwdrr4qa4,58064d91f25c440001678a10,678f3deb09bb611973ef0351,6792746d8de5d2be176d6b63,0,31,1737651826055,scale,14,face processing,I see myself as someone who...is weird,Strongly disagree,Strongly agree,0,,50,0,3483,507006
rjwdrr4qa4,58064d91f25c440001678a10,678f3deb09bb611973ef0351,6792746d8de5d2be176d6b63,0,32,1737651828642,scale,60,personality,I see myself as someone who...has few artistic interests,Strongly disagree,Strongly agree,0,,50,0,2586,509593
rjwdrr4qa4,58064d91f25c440001678a10,678f3deb09bb611973ef0351,6792746d8de5d2be176d6b63,0,33,1737651831460,scale,26,personality,I see myself as someone who...is helpful and unselfish with others,Strongly disagree,Strongly agree,0,,50,100,2817,512411
rjwdrr4qa4,58064d91f25c440001678a10,678f3deb09bb611973ef0351,6792746d8de5d2be176d6b63,0,35,1737651957610,scale,62,personality,I see myself as someone who...is easily distracted,Strongly disagree,Strongly agree,0,,50,10,3552,638561
rjwdrr4qa4,58064d91f25c440001678a10,678f3deb09bb611973ef0351,6792746d8de5d2be176d6b63,0,37,1737652092506,scale,29,personality,I see myself as someone who...is curious about many different things,Strongly disagree,Strongly agree,0,,50,100,3170,773457
rjwdrr4qa4,58064d91f25c440001678a10,678f3deb09bb611973ef0351,6792746d8de5d2be176d6b63,0,39,1737652216622,scale,36,personality,I see myself as someone who...has a forgiving nature,Strongly disagree,Strongly agree,0,,50,93,3248,897573
rjwdrr4qa4,58064d91f25c440001678a10,678f3deb09bb611973ef0351,6792746d8de5d2be176d6b63,0,40,1737652220192,scale,53,personality,I see myself as someone who...remains calm in tense situations,Strongly disagree,Strongly agree,0,,50,90,3569,901143
rjwdrr4qa4,58064d91f25c440001678a10,678f3deb09bb611973ef0351,6792746d8de5d2be176d6b63,0,41,1737652223378,scale,27,personality,I see myself as someone who...can be somewhat careless,Strongly disagree,Strongly agree,0,,50,18,3186,904329
rjwdrr4qa4,58064d91f25c440001678a10,678f3deb09bb611973ef0351,6792746d8de5d2be176d6b63,0,42,1737652225945,scale,33,personality,I see myself as someone who...can be tense,Strongly disagree,Strongly agree,0,,50,56,2566,906896
rjwdrr4qa4,58064d91f25c440001678a10,678f3deb09bb611973ef0351,6792746d8de5d2be176d6b63,0,43,1737652228680,scale,20,personality,I see myself as someone who...is talkative,Strongly disagree,Strongly agree,0,,50,62,2734,909631
rjwdrr4qa4,58064d91f25c440001678a10,678f3deb09bb611973ef0351,6792746d8de5d2be176d6b63,0,44,1737652232022,scale,43,personality,"I see myself as someone who...is emotionally stable, not easily upset",Strongly disagree,Strongly agree,0,,50,94,3341,912973
rjwdrr4qa4,58064d91f25c440001678a10,678f3deb09bb611973ef0351,6792746d8de5d2be176d6b63,0,45,1737652235762,scale,55,personality,"I see myself as someone who...is outgoing, sociable",Strongly disagree,Strongly agree,0,,50,73,3739,916713
rjwdrr4qa4,58064d91f25c440001678a10,678f3deb09bb611973ef0351,6792746d8de5d2be176d6b63,0,46,1737652238396,scale,42,personality,I see myself as someone who...tends to be lazy,Strongly disagree,Strongly agree,0,,50,0,2633,919347
rjwdrr4qa4,58064d91f25c440001678a10,678f3deb09bb611973ef0351,6792746d8de5d2be176d6b63,0,47,1737652241300,scale,47,personality,I see myself as someone who...perseveres until the task is finished,Strongly disagree,Strongly agree,0,,50,97,2904,922251
rjwdrr4qa4,58064d91f25c440001678a10,678f3deb09bb611973ef0351,6792746d8de5d2be176d6b63,0,48,1737652243805,scale,22,personality,I see myself as someone who...does a thorough job,Strongly disagree,Strongly agree,0,,50,99,2504,924756
rjwdrr4qa4,58064d91f25c440001678a10,678f3deb09bb611973ef0351,6792746d8de5d2be176d6b63,0,49,1737652246426,scale,8,face processing,I see myself as someone who...is unhappy,Strongly disagree,Strongly agree,0,,50,0,2620,927377
rjwdrr4qa4,58064d91f25c440001678a10,678f3deb09bb611973ef0351,6792746d8de5d2be176d6b63,0,50,1737652249073,scale,44,personality,I see myself as someone who...is inventive,Strongly disagree,Strongly agree,0,,50,20,2646,930024
rjwdrr4qa4,58064d91f25c440001678a10,678f3deb09bb611973ef0351,6792746d8de5d2be176d6b63,0,51,1737652254135,scale,49,personality,"I see myself as someone who...values artistic, aesthetic experiences",Strongly disagree,Strongly agree,0,,50,100,5062,935086
rjwdrr4qa4,58064d91f25c440001678a10,678f3deb09bb611973ef0351,6792746d8de5d2be176d6b63,0,52,1737652258003,scale,61,personality,I see myself as someone who...likes to cooperate with others,Strongly disagree,Strongly agree,0,,50,96,3867,938954
rjwdrr4qa4,58064d91f25c440001678a10,678f3deb09bb611973ef0351,6792746d8de5d2be176d6b63,0,53,1737652260586,scale,38,personality,I see myself as someone who...worries a lot,Strongly disagree,Strongly agree,0,,50,43,2583,941537
rjwdrr4qa4,58064d91f25c440001678a10,678f3deb09bb611973ef0351,6792746d8de5d2be176d6b63,0,54,1737652263107,scale,18,face processing,I see myself as someone who...is egotistic,Strongly disagree,Strongly agree,0,,50,24,2520,944058
rjwdrr4qa4,58064d91f25c440001678a10,678f3deb09bb611973ef0351,6792746d8de5d2be176d6b63,0,55,1737652266318,scale,41,personality,I see myself as someone who...is generally trusting,Strongly disagree,Strongly agree,0,,50,67,3210,947269
rjwdrr4qa4,58064d91f25c440001678a10,678f3deb09bb611973ef0351,6792746d8de5d2be176d6b63,0,56,1737652269741,scale,3,demographic,How would you describe your political views?,Very conservative,Very liberal,0,,50,12,3422,950692
rjwdrr4qa4,58064d91f25c440001678a10,678f3deb09bb611973ef0351,6792746d8de5d2be176d6b63,0,57,1737652273622,scale,30,personality,I see myself as someone who...is full of energy,Strongly disagree,Strongly agree,0,,50,81,3880,954573
rjwdrr4qa4,58064d91f25c440001678a10,678f3deb09bb611973ef0351,6792746d8de5d2be176d6b63,0,58,1737652276113,scale,23,personality,"I see myself as someone who...is depressed, blue",Strongly disagree,Strongly agree,0,,50,0,2490,957064
rjwdrr4qa4,58064d91f25c440001678a10,678f3deb09bb611973ef0351,6792746d8de5d2be176d6b63,0,59,1737652278186,scale,32,personality,I see myself as someone who...is a reliable worker,Strongly disagree,Strongly agree,0,,50,100,2072,959137
rjwdrr4qa4,58064d91f25c440001678a10,678f3deb09bb611973ef0351,6792746d8de5d2be176d6b63,0,60,1737652281258,scale,6,face processing,I see myself as someone who...is dominant,Strongly disagree,Strongly agree,0,,50,56,3071,962209
rjwdrr4qa4,58064d91f25c440001678a10,678f3deb09bb611973ef0351,6792746d8de5d2be176d6b63,0,61,1737652284273,scale,24,personality,"I see myself as someone who...is original, comes up with new ideas",Strongly disagree,Strongly agree,0,,50,41,3014,965224
rjwdrr4qa4,58064d91f25c440001678a10,678f3deb09bb611973ef0351,6792746d8de5d2be176d6b63,0,62,1737652287511,scale,4,demographic,How important would you say religion is in your own life?,Not very important,Very important,0,,50,100,3237,968462
rjwdrr4qa4,58064d91f25c440001678a10,678f3deb09bb611973ef0351,6792746d8de5d2be176d6b63,0,63,1737652292599,scale,,ATTENTION CHECK,Please drag the slider all the way to the end labeled HAMBURGER,HOTDOG,HAMBURGER,1,100,50,100,5087,973550
rjwdrr4qa4,58064d91f25c440001678a10,678f3deb09bb611973ef0351,6792746d8de5d2be176d6b63,0,64,1737652295627,scale,48,personality,I see myself as someone who...can be moody,Strongly disagree,Strongly agree,0,,50,41,3027,976578
rjwdrr4qa4,58064d91f25c440001678a10,678f3deb09bb611973ef0351,6792746d8de5d2be176d6b63,0,65,1737652298542,scale,34,personality,"I see myself as someone who...is ingenious, a deep thinker",Strongly disagree,Strongly agree,0,,50,41,2914,979493
rjwdrr4qa4,58064d91f25c440001678a10,678f3deb09bb611973ef0351,6792746d8de5d2be176d6b63,0,66,1737652300999,scale,5,face processing,I see myself as someone who...is trustworthy,Strongly disagree,Strongly agree,0,,50,100,2456,981950
rjwdrr4qa4,58064d91f25c440001678a10,678f3deb09bb611973ef0351,6792746d8de5d2be176d6b63,0,67,1737652304741,scale,1,demographic,I consider myself as:,Not at all feminine,Totally feminine,0,,50,0,3742,985692
rjwdrr4qa4,58064d91f25c440001678a10,678f3deb09bb611973ef0351,6792746d8de5d2be176d6b63,0,68,1737652307316,scale,25,personality,I see myself as someone who...is reserved,Strongly disagree,Strongly agree,0,,50,40,2574,988267
ruvsvemr8b,5e3c595d955ce604ac669fcb,678f3deb09bb611973ef0351,6792744262445c092a31a004,0,1,1737651336266,scale,49,personality,"I see myself as someone who...values artistic, aesthetic experiences",Strongly disagree,Strongly agree,0,,50,26,4286,37659
ruvsvemr8b,5e3c595d955ce604ac669fcb,678f3deb09bb611973ef0351,6792744262445c092a31a004,0,2,1737651339951,scale,26,personality,I see myself as someone who...is helpful and unselfish with others,Strongly disagree,Strongly agree,0,,50,41,3682,41345
ruvsvemr8b,5e3c595d955ce604ac669fcb,678f3deb09bb611973ef0351,6792744262445c092a31a004,0,3,1737651343811,scale,59,personality,"I see myself as someone who...likes to reflect, play with ideas",Strongly disagree,Strongly agree,0,,50,87,3858,45205
ruvsvemr8b,5e3c595d955ce604ac669fcb,678f3deb09bb611973ef0351,6792744262445c092a31a004,0,4,1737651346509,scale,62,personality,I see myself as someone who...is easily distracted,Strongly disagree,Strongly agree,0,,50,41,2697,47903
ruvsvemr8b,5e3c595d955ce604ac669fcb,678f3deb09bb611973ef0351,6792744262445c092a31a004,0,5,1737651349330,scale,39,personality,I see myself as someone who...has an active imagination,Strongly disagree,Strongly agree,0,,50,87,2818,50724
ruvsvemr8b,5e3c595d955ce604ac669fcb,678f3deb09bb611973ef0351,6792744262445c092a31a004,0,6,1737651351577,scale,32,personality,I see myself as someone who...is a reliable worker,Strongly disagree,Strongly agree,0,,50,100,2245,52971
ruvsvemr8b,5e3c595d955ce604ac669fcb,678f3deb09bb611973ef0351,6792744262445c092a31a004,0,8,1737651476375,scale,5,face processing,I see myself as someone who...is trustworthy,Strongly disagree,Strongly agree,0,,50,81,3601,177769
ruvsvemr8b,5e3c595d955ce604ac669fcb,678f3deb09bb611973ef0351,6792744262445c092a31a004,0,9,1737651478461,scale,44,personality,I see myself as someone who...is inventive,Strongly disagree,Strongly agree,0,,50,84,2084,179855
ruvsvemr8b,5e3c595d955ce604ac669fcb,678f3deb09bb611973ef0351,6792744262445c092a31a004,0,10,1737651483836,scale,,ATTENTION CHECK,Please drag the slider all the way to the end labeled STRAWBERRY,STRAWBERRY,PINEAPPLE,1,0,50,0,5373,185230
ruvsvemr8b,5e3c595d955ce604ac669fcb,678f3deb09bb611973ef0351,6792744262445c092a31a004,0,11,1737651486985,scale,38,personality,I see myself as someone who...worries a lot,Strongly disagree,Strongly agree,0,,50,87,3146,188379
ruvsvemr8b,5e3c595d955ce604ac669fcb,678f3deb09bb611973ef0351,6792744262445c092a31a004,0,12,1737651489249,scale,16,face processing,I see myself as someone who...is confident,Strongly disagree,Strongly agree,0,,50,27,2262,190643
ruvsvemr8b,5e3c595d955ce604ac669fcb,678f3deb09bb611973ef0351,6792744262445c092a31a004,0,13,1737651492192,scale,45,personality,I see myself as someone who...has an assertive personality,Strongly disagree,Strongly agree,0,,50,22,2941,193586
ruvsvemr8b,5e3c595d955ce604ac669fcb,678f3deb09bb611973ef0351,6792744262445c092a31a004,0,14,1737651494769,scale,35,personality,I see myself as someone who...generates a lot of enthusiasm,Strongly disagree,Strongly agree,0,,50,65,2575,196162
ruvsvemr8b,5e3c595d955ce604ac669fcb,678f3deb09bb611973ef0351,6792744262445c092a31a004,0,15,1737651498341,scale,63,personality,"I see myself as someone who...is sophisticated in art, music, or literature",Strongly disagree,Strongly agree,0,,50,86,3570,199735
ruvsvemr8b,5e3c595d955ce604ac669fcb,678f3deb09bb611973ef0351,6792744262445c092a31a004,0,16,1737651501241,scale,47,personality,I see myself as someone who...perseveres until the task is finished,Strongly disagree,Strongly agree,0,,50,93,2898,202634
ruvsvemr8b,5e3c595d955ce604ac669fcb,678f3deb09bb611973ef0351,6792744262445c092a31a004,0,17,1737651504704,scale,28,personality,"I see myself as someone who...is relaxed, handles stress well",Strongly disagree,Strongly agree,0,,50,75,3463,206098
ruvsvemr8b,5e3c595d955ce604ac669fcb,678f3deb09bb611973ef0351,6792744262445c092a31a004,0,18,1737651507566,scale,11,face processing,I see myself as someone who...is mean,Strongly disagree,Strongly agree,0,,50,0,2861,208960
ruvsvemr8b,5e3c595d955ce604ac669fcb,678f3deb09bb611973ef0351,6792744262445c092a31a004,0,19,1737651510148,scale,12,face processing,I see myself as someone who...is boring,Strongly disagree,Strongly agree,0,,50,14,2582,211542
ruvsvemr8b,5e3c595d955ce604ac669fcb,678f3deb09bb611973ef0351,6792744262445c092a31a004,0,21,1737651634619,scale,48,personality,I see myself as someone who...can be moody,Strongly disagree,Strongly agree,0,,50,67,3366,336013
ruvsvemr8b,5e3c595d955ce604ac669fcb,678f3deb09bb611973ef0351,6792744262445c092a31a004,0,22,1737651637691,scale,46,personality,I see myself as someone who...can be cold and aloof,Strongly disagree,Strongly agree,0,,50,76,3071,339085
ruvsvemr8b,5e3c595d955ce604ac669fcb,678f3deb09bb611973ef0351,6792744262445c092a31a004,0,23,1737651640608,scale,51,personality,I see myself as someone who...is considerate and kind to almost everyone,Strongly disagree,Strongly agree,0,,50,85,2915,342002
ruvsvemr8b,5e3c595d955ce604ac669fcb,678f3deb09bb611973ef0351,6792744262445c092a31a004,0,24,1737651643256,scale,8,face processing,I see myself as someone who...is unhappy,Strongly disagree,Strongly agree,0,,50,56,2646,344650
ruvsvemr8b,5e3c595d955ce604ac669fcb,678f3deb09bb611973ef0351,6792744262445c092a31a004,0,25,1737651646095,scale,43,personality,"I see myself as someone who...is emotionally stable, not easily upset",Strongly disagree,Strongly agree,0,,50,63,2837,347489
ruvsvemr8b,5e3c595d955ce604ac669fcb,678f3deb09bb611973ef0351,6792744262445c092a31a004,0,26,1737651648445,scale,60,personality,I see myself as someone who...has few artistic interests,Strongly disagree,Strongly agree,0,,50,22,2348,349839
ruvsvemr8b,5e3c595d955ce604ac669fcb,678f3deb09bb611973ef0351,6792744262445c092a31a004,0,27,1737651651078,scale,21,personality,I see myself as someone who...tends to find fault with others,Strongly disagree,Strongly agree,0,,50,100,2631,352472
ruvsvemr8b,5e3c595d955ce604ac669fcb,678f3deb09bb611973ef0351,6792744262445c092a31a004,0,28,1737651653882,scale,,ATTENTION CHECK,Please drag the slider all the way to the end labeled HAMBURGER,HOTDOG,HAMBURGER,1,100,50,100,2803,355276
ruvsvemr8b,5e3c595d955ce604ac669fcb,678f3deb09bb611973ef0351,6792744262445c092a31a004,0,29,1737651658520,scale,1,demographic,I consider myself as:,Not at all feminine,Totally feminine,0,,50,62,4636,359914
ruvsvemr8b,5e3c595d955ce604ac669fcb,678f3deb09bb611973ef0351,6792744262445c092a31a004,0,30,1737651661311,scale,23,personality,"I see myself as someone who...is depressed, blue",Strongly disagree,Strongly agree,0,,50,63,2789,362705
ruvsvemr8b,5e3c595d955ce604ac669fcb,678f3deb09bb611973ef0351,6792744262445c092a31a004,0,31,1737651664830,scale,6,face processing,I see myself as someone who...is dominant,Strongly disagree,Strongly agree,0,,50,7,3517,366224
ruvsvemr8b,5e3c595d955ce604ac669fcb,678f3deb09bb611973ef0351,6792744262445c092a31a004,0,33,1737651827144,scale,30,personality,I see myself as someone who...is full of energy,Strongly disagree,Strongly agree,0,,50,27,4091,528538
ruvsvemr8b,5e3c595d955ce604ac669fcb,678f3deb09bb611973ef0351,6792744262445c092a31a004,0,34,1737651829871,scale,4,demographic,How important would you say religion is in your own life?,Not very important,Very important,0,,50,0,2725,531265
ruvsvemr8b,5e3c595d955ce604ac669fcb,678f3deb09bb611973ef0351,6792744262445c092a31a004,0,35,1737651832550,scale,22,personality,I see myself as someone who...does a thorough job,Strongly disagree,Strongly agree,0,,50,100,2676,533943
ruvsvemr8b,5e3c595d955ce604ac669fcb,678f3deb09bb611973ef0351,6792744262445c092a31a004,0,36,1737651834669,scale,53,personality,I see myself as someone who...remains calm in tense situations,Strongly disagree,Strongly agree,0,,50,76,2117,536062
ruvsvemr8b,5e3c595d955ce604ac669fcb,678f3deb09bb611973ef0351,6792744262445c092a31a004,0,37,1737651836771,scale,58,personality,I see myself as someone who...gets nervous easily,Strongly disagree,Strongly agree,0,,50,36,2100,538165
ruvsvemr8b,5e3c595d955ce604ac669fcb,678f3deb09bb611973ef0351,6792744262445c092a31a004,0,38,1737651839337,scale,34,personality,"I see myself as someone who...is ingenious, a deep thinker",Strongly disagree,Strongly agree,0,,50,96,2565,540731
ruvsvemr8b,5e3c595d955ce604ac669fcb,678f3deb09bb611973ef0351,6792744262445c092a31a004,0,39,1737651842435,scale,3,demographic,How would you describe your political views?,Very conservative,Very liberal,0,,50,63,3095,543829
ruvsvemr8b,5e3c595d955ce604ac669fcb,678f3deb09bb611973ef0351,6792744262445c092a31a004,0,40,1737651845943,scale,41,personality,I see myself as someone who...is generally trusting,Strongly disagree,Strongly agree,0,,50,23,3506,547337
ruvsvemr8b,5e3c595d955ce604ac669fcb,678f3deb09bb611973ef0351,6792744262445c092a31a004,0,41,1737651849119,scale,36,personality,I see myself as someone who...has a forgiving nature,Strongly disagree,Strongly agree,0,,50,3,3174,550513
ruvsvemr8b,5e3c595d955ce604ac669fcb,678f3deb09bb611973ef0351,6792744262445c092a31a004,0,42,1737651852901,scale,17,face processing,I see myself as someone who...is caring,Strongly disagree,Strongly agree,0,,50,58,3780,554295
ruvsvemr8b,5e3c595d955ce604ac669fcb,678f3deb09bb611973ef0351,6792744262445c092a31a004,0,43,1737651855868,scale,24,personality,"I see myself as someone who...is original, comes up with new ideas",Strongly disagree,Strongly agree,0,,50,70,2965,557261
ruvsvemr8b,5e3c595d955ce604ac669fcb,678f3deb09bb611973ef0351,6792744262445c092a31a004,0,44,1737651858273,scale,61,personality,I see myself as someone who...likes to cooperate with others,Strongly disagree,Strongly agree,0,,50,71,2403,559667
ruvsvemr8b,5e3c595d955ce604ac669fcb,678f3deb09bb611973ef0351,6792744262445c092a31a004,0,45,1737651863623,scale,50,personality,"I see myself as someone who...is sometimes shy, inhibited",Strongly disagree,Strongly agree,0,,50,91,5348,565017
ruvsvemr8b,5e3c595d955ce604ac669fcb,678f3deb09bb611973ef0351,6792744262445c092a31a004,0,46,1737651865973,scale,19,face processing,I see myself as someone who...is responsible,Strongly disagree,Strongly agree,0,,50,100,2348,567367
ruvsvemr8b,5e3c595d955ce604ac669fcb,678f3deb09bb611973ef0351,6792744262445c092a31a004,0,47,1737651868692,scale,42,personality,I see myself as someone who...tends to be lazy,Strongly disagree,Strongly agree,0,,50,13,2717,570086
ruvsvemr8b,5e3c595d955ce604ac669fcb,678f3deb09bb611973ef0351,6792744262445c092a31a004,0,48,1737651870779,scale,55,personality,"I see myself as someone who...is outgoing, sociable",Strongly disagree,Strongly agree,0,,50,59,2085,572173
ruvsvemr8b,5e3c595d955ce604ac669fcb,678f3deb09bb611973ef0351,6792744262445c092a31a004,0,49,1737651872899,scale,33,personality,I see myself as someone who...can be tense,Strongly disagree,Strongly agree,0,,50,66,2117,574292
ruvsvemr8b,5e3c595d955ce604ac669fcb,678f3deb09bb611973ef0351,6792744262445c092a31a004,0,50,1737651874720,scale,25,personality,I see myself as someone who...is reserved,Strongly disagree,Strongly agree,0,,50,71,1820,576114
ruvsvemr8b,5e3c595d955ce604ac669fcb,678f3deb09bb611973ef0351,6792744262445c092a31a004,0,51,1737651876807,scale,20,personality,I see myself as someone who...is talkative,Strongly disagree,Strongly agree,0,,50,90,2085,578201
ruvsvemr8b,5e3c595d955ce604ac669fcb,678f3deb09bb611973ef0351,6792744262445c092a31a004,0,52,1737651879126,scale,13,face processing,I see myself as someone who...is aggressive,Strongly disagree,Strongly agree,0,,50,4,2317,580520
ruvsvemr8b,5e3c595d955ce604ac669fcb,678f3deb09bb611973ef0351,6792744262445c092a31a004,0,53,1737651881421,scale,37,personality,I see myself as someone who...tends to be disorganized,Strongly disagree,Strongly agree,0,,50,0,2294,582815
ruvsvemr8b,5e3c595d955ce604ac669fcb,678f3deb09bb611973ef0351,6792744262445c092a31a004,0,54,1737651883861,scale,52,personality,I see myself as someone who...does things efficiently,Strongly disagree,Strongly agree,0,,50,88,2438,585255
ruvsvemr8b,5e3c595d955ce604ac669fcb,678f3deb09bb611973ef0351,6792744262445c092a31a004,0,55,1737651886740,scale,27,personality,I see myself as someone who...can be somewhat careless,Strongly disagree,Strongly agree,0,,50,7,2877,588134
ruvsvemr8b,5e3c595d955ce604ac669fcb,678f3deb09bb611973ef0351,6792744262445c092a31a004,0,56,1737651890058,scale,40,personality,I see myself as someone who...tends to be quiet,Strongly disagree,Strongly agree,0,,50,33,3316,591452
ruvsvemr8b,5e3c595d955ce604ac669fcb,678f3deb09bb611973ef0351,6792744262445c092a31a004,0,57,1737651892883,scale,54,personality,I see myself as someone who...prefers work that is routine,Strongly disagree,Strongly agree,0,,50,82,2823,594277
ruvsvemr8b,5e3c595d955ce604ac669fcb,678f3deb09bb611973ef0351,6792744262445c092a31a004,0,59,1737652064109,scale,14,face processing,I see myself as someone who...is weird,Strongly disagree,Strongly agree,0,,50,73,2938,765503
ruvsvemr8b,5e3c595d955ce604ac669fcb,678f3deb09bb611973ef0351,6792744262445c092a31a004,0,60,1737652066455,scale,56,personality,I see myself as someone who...is sometimes rude to others,Strongly disagree,Strongly agree,0,,50,0,2345,767849
ruvsvemr8b,5e3c595d955ce604ac669fcb,678f3deb09bb611973ef0351,6792744262445c092a31a004,0,62,1737652250233,scale,18,face processing,I see myself as someone who...is egotistic,Strongly disagree,Strongly agree,0,,50,7,3860,951627
ruvsvemr8b,5e3c595d955ce604ac669fcb,678f3deb09bb611973ef0351,6792744262445c092a31a004,0,63,1737652252710,scale,15,face processing,I see myself as someone who...is intelligent,Strongly disagree,Strongly agree,0,,50,100,2475,954104
ruvsvemr8b,5e3c595d955ce604ac669fcb,678f3deb09bb611973ef0351,6792744262445c092a31a004,0,64,1737652255644,scale,31,personality,I see myself as someone who...starts quarrels with others,Strongly disagree,Strongly agree,0,,50,12,2933,957038
ruvsvemr8b,5e3c595d955ce604ac669fcb,678f3deb09bb611973ef0351,6792744262445c092a31a004,0,65,1737652261234,scale,2,demographic,I consider myself as:,Not at all masculine,Totally masculine,0,,50,38,5588,962628
ruvsvemr8b,5e3c595d955ce604ac669fcb,678f3deb09bb611973ef0351,6792744262445c092a31a004,0,66,1737652264071,scale,29,personality,I see myself as someone who...is curious about many different things,Strongly disagree,Strongly agree,0,,50,100,2836,965465
ruvsvemr8b,5e3c595d955ce604ac669fcb,678f3deb09bb611973ef0351,6792744262445c092a31a004,0,67,1737652266880,scale,57,personality,I see myself as someone who...makes plans and follows through with them,Strongly disagree,Strongly agree,0,,50,72,2807,968274
ljl2lsvx3b,6526f601bedbae17738408b1,678f3deb09bb611973ef0351,679274085b4c03c2b885001e,0,1,1737651374671,scale,17,face processing,I see myself as someone who...is caring,Strongly disagree,Strongly agree,0,,50,60,5618,81148
ljl2lsvx3b,6526f601bedbae17738408b1,678f3deb09bb611973ef0351,679274085b4c03c2b885001e,0,2,1737651378455,scale,61,personality,I see myself as someone who...likes to cooperate with others,Strongly disagree,Strongly agree,0,,50,31,3781,84932
ljl2lsvx3b,6526f601bedbae17738408b1,678f3deb09bb611973ef0351,679274085b4c03c2b885001e,0,3,1737651382321,scale,39,personality,I see myself as someone who...has an active imagination,Strongly disagree,Strongly agree,0,,50,88,3865,88798
ljl2lsvx3b,6526f601bedbae17738408b1,678f3deb09bb611973ef0351,679274085b4c03c2b885001e,0,4,1737651387184,scale,13,face processing,I see myself as someone who...is aggressive,Strongly disagree,Strongly agree,0,,50,53,4862,93661
ljl2lsvx3b,6526f601bedbae17738408b1,678f3deb09bb611973ef0351,679274085b4c03c2b885001e,0,5,1737651391172,scale,31,personality,I see myself as someone who...starts quarrels with others,Strongly disagree,Strongly agree,0,,50,38,3986,97649
ljl2lsvx3b,6526f601bedbae17738408b1,678f3deb09bb611973ef0351,679274085b4c03c2b885001e,0,7,1737651518601,scale,45,personality,I see myself as someone who...has an assertive personality,Strongly disagree,Strongly agree,0,,50,72,4888,225078
ljl2lsvx3b,6526f601bedbae17738408b1,678f3deb09bb611973ef0351,679274085b4c03c2b885001e,0,8,1737651523515,scale,23,personality,"I see myself as someone who...is depressed, blue",Strongly disagree,Strongly agree,0,,50,47,4913,229992
ljl2lsvx3b,6526f601bedbae17738408b1,678f3deb09bb611973ef0351,679274085b4c03c2b885001e,0,9,1737651527994,scale,33,personality,I see myself as someone who...can be tense,Strongly disagree,Strongly agree,0,,50,53,4476,234471
ljl2lsvx3b,6526f601bedbae17738408b1,678f3deb09bb611973ef0351,679274085b4c03c2b885001e,0,10,1737651532422,scale,30,personality,I see myself as someone who...is full of energy,Strongly disagree,Strongly agree,0,,50,45,4426,238899
ljl2lsvx3b,6526f601bedbae17738408b1,678f3deb09bb611973ef0351,679274085b4c03c2b885001e,0,11,1737651538185,scale,56,personality,I see myself as someone who...is sometimes rude to others,Strongly disagree,Strongly agree,0,,50,38,5761,244662
ljl2lsvx3b,6526f601bedbae17738408b1,678f3deb09bb611973ef0351,679274085b4c03c2b885001e,0,12,1737651542733,scale,11,face processing,I see myself as someone who...is mean,Strongly disagree,Strongly agree,0,,50,11,4546,249210
ljl2lsvx3b,6526f601bedbae17738408b1,678f3deb09bb611973ef0351,679274085b4c03c2b885001e,0,13,1737651548966,scale,4,demographic,How important would you say religion is in your own life?,Not very important,Very important,0,,50,77,6231,255443
ljl2lsvx3b,6526f601bedbae17738408b1,678f3deb09bb611973ef0351,679274085b4c03c2b885001e,0,14,1737651555634,scale,57,personality,I see myself as someone who...makes plans and follows through with them,Strongly disagree,Strongly agree,0,,50,56,6666,262111
ljl2lsvx3b,6526f601bedbae17738408b1,678f3deb09bb611973ef0351,679274085b4c03c2b885001e,0,15,1737651559955,scale,37,personality,I see myself as someone who...tends to be disorganized,Strongly disagree,Strongly agree,0,,50,12,4321,266432
ljl2lsvx3b,6526f601bedbae17738408b1,678f3deb09bb611973ef0351,679274085b4c03c2b885001e,0,17,1737651813059,scale,59,personality,"I see myself as someone who...likes to reflect, play with ideas",Strongly disagree,Strongly agree,0,,50,84,75177,519536
ljl2lsvx3b,6526f601bedbae17738408b1,678f3deb09bb611973ef0351,679274085b4c03c2b885001e,0,18,1737651821229,scale,5,face processing,I see myself as someone who...is trustworthy,Strongly disagree,Strongly agree,0,,50,84,8168,527706
ljl2lsvx3b,6526f601bedbae17738408b1,678f3deb09bb611973ef0351,679274085b4c03c2b885001e,0,19,1737651826184,scale,47,personality,I see myself as someone who...perseveres until the task is finished,Strongly disagree,Strongly agree,0,,50,46,4952,532661
ljl2lsvx3b,6526f601bedbae17738408b1,678f3deb09bb611973ef0351,679274085b4c03c2b885001e,0,20,1737651830682,scale,8,face processing,I see myself as someone who...is unhappy,Strongly disagree,Strongly agree,0,,50,24,4497,537159
ljl2lsvx3b,6526f601bedbae17738408b1,678f3deb09bb611973ef0351,679274085b4c03c2b885001e,0,21,1737651841652,scale,55,personality,"I see myself as someone who...is outgoing, sociable",Strongly disagree,Strongly agree,0,,50,47,10969,548129
ljl2lsvx3b,6526f601bedbae17738408b1,678f3deb09bb611973ef0351,679274085b4c03c2b885001e,0,22,1737651846111,scale,34,personality,"I see myself as someone who...is ingenious, a deep thinker",Strongly disagree,Strongly agree,0,,50,68,4456,552588
ljl2lsvx3b,6526f601bedbae17738408b1,678f3deb09bb611973ef0351,679274085b4c03c2b885001e,0,23,1737651851480,scale,42,personality,I see myself as someone who...tends to be lazy,Strongly disagree,Strongly agree,0,,50,30,5368,557957
ljl2lsvx3b,6526f601bedbae17738408b1,678f3deb09bb611973ef0351,679274085b4c03c2b885001e,0,24,1737651856196,scale,48,personality,I see myself as someone who...can be moody,Strongly disagree,Strongly agree,0,,50,53,4715,562673
ljl2lsvx3b,6526f601bedbae17738408b1,678f3deb09bb611973ef0351,679274085b4c03c2b885001e,0,25,1737651867230,scale,24,personality,"I see myself as someone who...is original, comes up with new ideas",Strongly disagree,Strongly agree,0,,50,74,11032,573707
ljl2lsvx3b,6526f601bedbae17738408b1,678f3deb09bb611973ef0351,679274085b4c03c2b885001e,0,26,1737651873653,scale,36,personality,I see myself as someone who...has a forgiving nature,Strongly disagree,Strongly agree,0,,50,46,6419,580130
ljl2lsvx3b,6526f601bedbae17738408b1,678f3deb09bb611973ef0351,679274085b4c03c2b885001e,0,27,1737651890417,scale,27,personality,I see myself as someone who...can be somewhat careless,Strongly disagree,Strongly agree,0,,50,30,16760,596894
ljl2lsvx3b,6526f601bedbae17738408b1,678f3deb09bb611973ef0351,679274085b4c03c2b885001e,0,28,1737651895689,scale,29,personality,I see myself as someone who...is curious about many different things,Strongly disagree,Strongly agree,0,,50,92,5270,602166
ljl2lsvx3b,6526f601bedbae17738408b1,678f3deb09bb611973ef0351,679274085b4c03c2b885001e,0,29,1737651915951,scale,19,face processing,I see myself as someone who...is responsible,Strongly disagree,Strongly agree,0,,50,81,20260,622428
ljl2lsvx3b,6526f601bedbae17738408b1,678f3deb09bb611973ef0351,679274085b4c03c2b885001e,0,30,1737651931087,scale,1,demographic,I consider myself as:,Not at all feminine,Totally feminine,0,,50,20,15135,637564
ljl2lsvx3b,6526f601bedbae17738408b1,678f3deb09bb611973ef0351,679274085b4c03c2b885001e,0,31,1737651940451,scale,,ATTENTION CHECK,Please drag the slider all the way to the end labeled HAMBURGER,HOTDOG,HAMBURGER,1,100,50,100,9361,646928
ljl2lsvx3b,6526f601bedbae17738408b1,678f3deb09bb611973ef0351,679274085b4c03c2b885001e,0,32,1737651951238,scale,32,personality,I see myself as someone who...is a reliable worker,Strongly disagree,Strongly agree,0,,50,83,10785,657715
ljl2lsvx3b,6526f601bedbae17738408b1,678f3deb09bb611973ef0351,679274085b4c03c2b885001e,0,33,1737651958045,scale,18,face processing,I see myself as someone who...is egotistic,Strongly disagree,Strongly agree,0,,50,54,6805,664522
ljl2lsvx3b,6526f601bedbae17738408b1,678f3deb09bb611973ef0351,679274085b4c03c2b885001e,0,35,1737652085641,scale,26,personality,I see myself as someone who...is helpful and unselfish with others,Strongly disagree,Strongly agree,0,,50,82,6194,792118
ljl2lsvx3b,6526f601bedbae17738408b1,678f3deb09bb611973ef0351,679274085b4c03c2b885001e,0,36,1737652089914,scale,35,personality,I see myself as someone who...generates a lot of enthusiasm,Strongly disagree,Strongly agree,0,,50,70,4272,796391
ljl2lsvx3b,6526f601bedbae17738408b1,678f3deb09bb611973ef0351,679274085b4c03c2b885001e,0,37,1737652095176,scale,21,personality,I see myself as someone who...tends to find fault with others,Strongly disagree,Strongly agree,0,,50,23,5261,801653
ljl2lsvx3b,6526f601bedbae17738408b1,678f3deb09bb611973ef0351,679274085b4c03c2b885001e,0,38,1737652100075,scale,3,demographic,How would you describe your political views?,Very conservative,Very liberal,0,,50,55,4898,806552
ljl2lsvx3b,6526f601bedbae17738408b1,678f3deb09bb611973ef0351,679274085b4c03c2b885001e,0,39,1737652103899,scale,20,personality,I see myself as someone who...is talkative,Strongly disagree,Strongly agree,0,,50,24,3823,810376
ljl2lsvx3b,6526f601bedbae17738408b1,678f3deb09bb611973ef0351,679274085b4c03c2b885001e,0,40,1737652109317,scale,50,personality,"I see myself as someone who...is sometimes shy, inhibited",Strongly disagree,Strongly agree,0,,50,26,5416,815794
ljl2lsvx3b,6526f601bedbae17738408b1,678f3deb09bb611973ef0351,679274085b4c03c2b885001e,0,41,1737652115394,scale,16,face processing,I see myself as someone who...is confident,Strongly disagree,Strongly agree,0,,50,72,6076,821871
ljl2lsvx3b,6526f601bedbae17738408b1,678f3deb09bb611973ef0351,679274085b4c03c2b885001e,0,42,1737652119541,scale,40,personality,I see myself as someone who...tends to be quiet,Strongly disagree,Strongly agree,0,,50,66,4145,826018
ljl2lsvx3b,6526f601bedbae17738408b1,678f3deb09bb611973ef0351,679274085b4c03c2b885001e,0,43,1737652124798,scale,15,face processing,I see myself as someone who...is intelligent,Strongly disagree,Strongly agree,0,,50,92,5256,831275
ljl2lsvx3b,6526f601bedbae17738408b1,678f3deb09bb611973ef0351,679274085b4c03c2b885001e,0,44,1737652128475,scale,41,personality,I see myself as someone who...is generally trusting,Strongly disagree,Strongly agree,0,,50,21,3676,834952
ljl2lsvx3b,6526f601bedbae17738408b1,678f3deb09bb611973ef0351,679274085b4c03c2b885001e,0,45,1737652131838,scale,52,personality,I see myself as someone who...does things efficiently,Strongly disagree,Strongly agree,0,,50,71,3362,838315
ljl2lsvx3b,6526f601bedbae17738408b1,678f3deb09bb611973ef0351,679274085b4c03c2b885001e,0,46,1737652140616,scale,25,personality,I see myself as someone who...is reserved,Strongly disagree,Strongly agree,0,,50,50,8776,847093
ljl2lsvx3b,6526f601bedbae17738408b1,678f3deb09bb611973ef0351,679274085b4c03c2b885001e,0,47,1737652147598,scale,62,personality,I see myself as someone who...is easily distracted,Strongly disagree,Strongly agree,0,,50,33,6980,854075
ljl2lsvx3b,6526f601bedbae17738408b1,678f3deb09bb611973ef0351,679274085b4c03c2b885001e,0,48,1737652153372,scale,,ATTENTION CHECK,Please drag the slider all the way to the end labeled STRAWBERRY,STRAWBERRY,PINEAPPLE,1,0,50,0,5772,859849
ljl2lsvx3b,6526f601bedbae17738408b1,678f3deb09bb611973ef0351,679274085b4c03c2b885001e,0,49,1737652159128,scale,14,face processing,I see myself as someone who...is weird,Strongly disagree,Strongly agree,0,,50,37,5755,865605
ljl2lsvx3b,6526f601bedbae17738408b1,678f3deb09bb611973ef0351,679274085b4c03c2b885001e,0,51,1737652315213,scale,51,personality,I see myself as someone who...is considerate and kind to almost everyone,Strongly disagree,Strongly agree,0,,50,40,11691,1021690
ljl2lsvx3b,6526f601bedbae17738408b1,678f3deb09bb611973ef0351,679274085b4c03c2b885001e,0,52,1737652326982,scale,6,face processing,I see myself as someone who...is dominant,Strongly disagree,Strongly agree,0,,50,67,11768,1033459
ljl2lsvx3b,6526f601bedbae17738408b1,678f3deb09bb611973ef0351,679274085b4c03c2b885001e,0,53,1737652332140,scale,58,personality,I see myself as someone who...gets nervous easily,Strongly disagree,Strongly agree,0,,50,41,5157,1038617
ljl2lsvx3b,6526f601bedbae17738408b1,678f3deb09bb611973ef0351,679274085b4c03c2b885001e,0,54,1737652338582,scale,2,demographic,I consider myself as:,Not at all masculine,Totally masculine,0,,50,83,6440,1045059
ljl2lsvx3b,6526f601bedbae17738408b1,678f3deb09bb611973ef0351,679274085b4c03c2b885001e,0,55,1737652345797,scale,49,personality,"I see myself as someone who...values artistic, aesthetic experiences",Strongly disagree,Strongly agree,0,,50,90,7213,1052274
ljl2lsvx3b,6526f601bedbae17738408b1,678f3deb09bb611973ef0351,679274085b4c03c2b885001e,0,56,1737652353109,scale,53,personality,I see myself as someone who...remains calm in tense situations,Strongly disagree,Strongly agree,0,,50,75,7311,1059586
ljl2lsvx3b,6526f601bedbae17738408b1,678f3deb09bb611973ef0351,679274085b4c03c2b885001e,0,57,1737652358373,scale,46,personality,I see myself as someone who...can be cold and aloof,Strongly disagree,Strongly agree,0,,50,63,5261,1064850
ljl2lsvx3b,6526f601bedbae17738408b1,678f3deb09bb611973ef0351,679274085b4c03c2b885001e,0,58,1737652363243,scale,28,personality,"I see myself as someone who...is relaxed, handles stress well",Strongly disagree,Strongly agree,0,,50,69,4869,1069720
ljl2lsvx3b,6526f601bedbae17738408b1,678f3deb09bb611973ef0351,679274085b4c03c2b885001e,0,59,1737652370823,scale,54,personality,I see myself as someone who...prefers work that is routine,Strongly disagree,Strongly agree,0,,50,40,7577,1077300
ljl2lsvx3b,6526f601bedbae17738408b1,678f3deb09bb611973ef0351,679274085b4c03c2b885001e,0,60,1737652378498,scale,12,face processing,I see myself as someone who...is boring,Strongly disagree,Strongly agree,0,,50,41,7675,1084975
ljl2lsvx3b,6526f601bedbae17738408b1,678f3deb09bb611973ef0351,679274085b4c03c2b885001e,0,61,1737652382696,scale,22,personality,I see myself as someone who...does a thorough job,Strongly disagree,Strongly agree,0,,50,69,4198,1089173
ljl2lsvx3b,6526f601bedbae17738408b1,678f3deb09bb611973ef0351,679274085b4c03c2b885001e,0,62,1737652388593,scale,63,personality,"I see myself as someone who...is sophisticated in art, music, or literature",Strongly disagree,Strongly agree,0,,50,46,5895,1095070
ljl2lsvx3b,6526f601bedbae17738408b1,678f3deb09bb611973ef0351,679274085b4c03c2b885001e,0,63,1737652393232,scale,60,personality,I see myself as someone who...has few artistic interests,Strongly disagree,Strongly agree,0,,50,0,4638,1099709
ljl2lsvx3b,6526f601bedbae17738408b1,678f3deb09bb611973ef0351,679274085b4c03c2b885001e,0,64,1737652397779,scale,38,personality,I see myself as someone who...worries a lot,Strongly disagree,Strongly agree,0,,50,45,4546,1104256
ljl2lsvx3b,6526f601bedbae17738408b1,678f3deb09bb611973ef0351,679274085b4c03c2b885001e,0,66,1737652533817,scale,43,personality,"I see myself as someone who...is emotionally stable, not easily upset",Strongly disagree,Strongly agree,0,,50,64,5338,1240294
ljl2lsvx3b,6526f601bedbae17738408b1,678f3deb09bb611973ef0351,679274085b4c03c2b885001e,0,67,1737652537880,scale,44,personality,I see myself as someone who...is inventive,Strongly disagree,Strongly agree,0,,50,91,4061,1244357
jk90xnyke8,67803cd876bfe6551a50a4e5,678f3deb09bb611973ef0351,6792733903e4f9cd8de6e69b,0,1,1737640837117,scale,23,personality,"I see myself as someone who...is depressed, blue",Strongly disagree,Strongly agree,0,,50,5,19811,174640
jk90xnyke8,67803cd876bfe6551a50a4e5,678f3deb09bb611973ef0351,6792733903e4f9cd8de6e69b,0,3,1737640969600,scale,35,personality,I see myself as someone who...generates a lot of enthusiasm,Strongly disagree,Strongly agree,0,,50,70,7253,307123
jk90xnyke8,67803cd876bfe6551a50a4e5,678f3deb09bb611973ef0351,6792733903e4f9cd8de6e69b,0,4,1737640993776,scale,58,personality,I see myself as someone who...gets nervous easily,Strongly disagree,Strongly agree,0,,50,18,24173,331299
jk90xnyke8,67803cd876bfe6551a50a4e5,678f3deb09bb611973ef0351,6792733903e4f9cd8de6e69b,0,5,1737641021931,scale,44,personality,I see myself as someone who...is inventive,Strongly disagree,Strongly agree,0,,50,66,28152,359454
jk90xnyke8,67803cd876bfe6551a50a4e5,678f3deb09bb611973ef0351,6792733903e4f9cd8de6e69b,0,6,1737641026358,scale,5,face processing,I see myself as someone who...is trustworthy,Strongly disagree,Strongly agree,0,,50,81,4424,363881
jk90xnyke8,67803cd876bfe6551a50a4e5,678f3deb09bb611973ef0351,6792733903e4f9cd8de6e69b,0,7,1737641035124,scale,25,personality,I see myself as someone who...is reserved,Strongly disagree,Strongly agree,0,,50,87,8764,372647
jk90xnyke8,67803cd876bfe6551a50a4e5,678f3deb09bb611973ef0351,6792733903e4f9cd8de6e69b,0,8,1737641040874,scale,42,personality,I see myself as someone who...tends to be lazy,Strongly disagree,Strongly agree,0,,50,1,5746,378397
jk90xnyke8,67803cd876bfe6551a50a4e5,678f3deb09bb611973ef0351,6792733903e4f9cd8de6e69b,0,9,1737641046085,scale,62,personality,I see myself as someone who...is easily distracted,Strongly disagree,Strongly agree,0,,50,14,5209,383608
jk90xnyke8,67803cd876bfe6551a50a4e5,678f3deb09bb611973ef0351,6792733903e4f9cd8de6e69b,0,10,1737641079480,scale,26,personality,I see myself as someone who...is helpful and unselfish with others,Strongly disagree,Strongly agree,0,,50,78,33393,417003
jk90xnyke8,67803cd876bfe6551a50a4e5,678f3deb09bb611973ef0351,6792733903e4f9cd8de6e69b,0,11,1737641085441,scale,15,face processing,I see myself as someone who...is intelligent,Strongly disagree,Strongly agree,0,,50,80,5958,422964
jk90xnyke8,67803cd876bfe6551a50a4e5,678f3deb09bb611973ef0351,6792733903e4f9cd8de6e69b,0,13,1737641227313,scale,47,personality,I see myself as someone who...perseveres until the task is finished,Strongly disagree,Strongly agree,0,,50,98,13638,564836
jk90xnyke8,67803cd876bfe6551a50a4e5,678f3deb09bb611973ef0351,6792733903e4f9cd8de6e69b,0,14,1737641231254,scale,19,face processing,I see myself as someone who...is responsible,Strongly disagree,Strongly agree,0,,50,84,3938,568777
jk90xnyke8,67803cd876bfe6551a50a4e5,678f3deb09bb611973ef0351,6792733903e4f9cd8de6e69b,0,15,1737641241317,scale,60,personality,I see myself as someone who...has few artistic interests,Strongly disagree,Strongly agree,0,,50,35,10061,578840
jk90xnyke8,67803cd876bfe6551a50a4e5,678f3deb09bb611973ef0351,6792733903e4f9cd8de6e69b,0,16,1737641245406,scale,17,face processing,I see myself as someone who...is caring,Strongly disagree,Strongly agree,0,,50,80,4087,582929
jk90xnyke8,67803cd876bfe6551a50a4e5,678f3deb09bb611973ef0351,6792733903e4f9cd8de6e69b,0,17,1737641255307,scale,4,demographic,How important would you say religion is in your own life?,Not very important,Very important,0,,50,76,9898,592830
jk90xnyke8,67803cd876bfe6551a50a4e5,678f3deb09bb611973ef0351,6792733903e4f9cd8de6e69b,0,18,1737641262326,scale,34,personality,"I see myself as someone who...is ingenious, a deep thinker",Strongly disagree,Strongly agree,0,,50,72,7018,599849
jk90xnyke8,67803cd876bfe6551a50a4e5,678f3deb09bb611973ef0351,6792733903e4f9cd8de6e69b,0,19,1737641274409,scale,,ATTENTION CHECK,Please drag the slider all the way to the end labeled HAMBURGER,HOTDOG,HAMBURGER,1,100,50,100,12080,611932
jk90xnyke8,67803cd876bfe6551a50a4e5,678f3deb09bb611973ef0351,6792733903e4f9cd8de6e69b,0,20,1737641282925,scale,59,personality,"I see myself as someone who...likes to reflect, play with ideas",Strongly disagree,Strongly agree,0,,50,82,8514,620448
jk90xnyke8,67803cd876bfe6551a50a4e5,678f3deb09bb611973ef0351,6792733903e4f9cd8de6e69b,0,21,1737641288958,scale,43,personality,"I see myself as someone who...is emotionally stable, not easily upset",Strongly disagree,Strongly agree,0,,50,92,6032,626481
jk90xnyke8,67803cd876bfe6551a50a4e5,678f3deb09bb611973ef0351,6792733903e4f9cd8de6e69b,0,22,1737641298035,scale,40,personality,I see myself as someone who...tends to be quiet,Strongly disagree,Strongly agree,0,,50,66,9075,635558
jk90xnyke8,67803cd876bfe6551a50a4e5,678f3deb09bb611973ef0351,6792733903e4f9cd8de6e69b,0,23,1737641329705,scale,45,personality,I see myself as someone who...has an assertive personality,Strongly disagree,Strongly agree,0,,50,74,31668,667228
jk90xnyke8,67803cd876bfe6551a50a4e5,678f3deb09bb611973ef0351,6792733903e4f9cd8de6e69b,0,24,1737641337274,scale,11,face processing,I see myself as someone who...is mean,Strongly disagree,Strongly agree,0,,50,21,7567,674797
jk90xnyke8,67803cd876bfe6551a50a4e5,678f3deb09bb611973ef0351,6792733903e4f9cd8de6e69b,0,25,1737641346265,scale,6,face processing,I see myself as someone who...is dominant,Strongly disagree,Strongly agree,0,,50,56,8989,683788
jk90xnyke8,67803cd876bfe6551a50a4e5,678f3deb09bb611973ef0351,6792733903e4f9cd8de6e69b,0,26,1737641360119,scale,56,personality,I see myself as someone who...is sometimes rude to others,Strongly disagree,Strongly agree,0,,50,11,13853,697642
jk90xnyke8,67803cd876bfe6551a50a4e5,678f3deb09bb611973ef0351,6792733903e4f9cd8de6e69b,0,27,1737641371091,scale,46,personality,I see myself as someone who...can be cold and aloof,Strongly disagree,Strongly agree,0,,50,53,10970,708614
jk90xnyke8,67803cd876bfe6551a50a4e5,678f3deb09bb611973ef0351,6792733903e4f9cd8de6e69b,0,28,1737641385258,scale,14,face processing,I see myself as someone who...is weird,Strongly disagree,Strongly agree,0,,50,8,14164,722781
jk90xnyke8,67803cd876bfe6551a50a4e5,678f3deb09bb611973ef0351,6792733903e4f9cd8de6e69b,0,29,1737641391006,scale,12,face processing,I see myself as someone who...is boring,Strongly disagree,Strongly agree,0,,50,0,5746,728529
jk90xnyke8,67803cd876bfe6551a50a4e5,678f3deb09bb611973ef0351,6792733903e4f9cd8de6e69b,0,30,1737641398213,scale,37,personality,I see myself as someone who...tends to be disorganized,Strongly disagree,Strongly agree,0,,50,3,7205,735736
jk90xnyke8,67803cd876bfe6551a50a4e5,678f3deb09bb611973ef0351,6792733903e4f9cd8de6e69b,0,31,1737641402889,scale,32,personality,I see myself as someone who...is a reliable worker,Strongly disagree,Strongly agree,0,,50,76,4674,740412
jk90xnyke8,67803cd876bfe6551a50a4e5,678f3deb09bb611973ef0351,6792733903e4f9cd8de6e69b,0,32,1737641410994,scale,49,personality,"I see myself as someone who...values artistic, aesthetic experiences",Strongly disagree,Strongly agree,0,,50,65,8103,748517
jk90xnyke8,67803cd876bfe6551a50a4e5,678f3deb09bb611973ef0351,6792733903e4f9cd8de6e69b,0,33,1737641419473,scale,1,demographic,I consider myself as:,Not at all feminine,Totally feminine,0,,50,76,8477,756996
jk90xnyke8,67803cd876bfe6551a50a4e5,678f3deb09bb611973ef0351,6792733903e4f9cd8de6e69b,0,34,1737641425857,scale,21,personality,I see myself as someone who...tends to find fault with others,Strongly disagree,Strongly agree,0,,50,3,6382,763380
jk90xnyke8,67803cd876bfe6551a50a4e5,678f3deb09bb611973ef0351,6792733903e4f9cd8de6e69b,0,35,1737641445857,scale,53,personality,I see myself as someone who...remains calm in tense situations,Strongly disagree,Strongly agree,0,,50,47,19998,783380
jk90xnyke8,67803cd876bfe6551a50a4e5,678f3deb09bb611973ef0351,6792733903e4f9cd8de6e69b,0,36,1737641456680,scale,36,personality,I see myself as someone who...has a forgiving nature,Strongly disagree,Strongly agree,0,,50,93,10820,794203
jk90xnyke8,67803cd876bfe6551a50a4e5,678f3deb09bb611973ef0351,6792733903e4f9cd8de6e69b,0,37,1737641463999,scale,24,personality,"I see myself as someone who...is original, comes up with new ideas",Strongly disagree,Strongly agree,0,,50,68,7317,801522
jk90xnyke8,67803cd876bfe6551a50a4e5,678f3deb09bb611973ef0351,6792733903e4f9cd8de6e69b,0,39,1737641617244,scale,51,personality,I see myself as someone who...is considerate and kind to almost everyone,Strongly disagree,Strongly agree,0,,50,76,8314,954767
jk90xnyke8,67803cd876bfe6551a50a4e5,678f3deb09bb611973ef0351,6792733903e4f9cd8de6e69b,0,40,1737641620923,scale,55,personality,"I see myself as someone who...is outgoing, sociable",Strongly disagree,Strongly agree,0,,50,92,3677,958446
jk90xnyke8,67803cd876bfe6551a50a4e5,678f3deb09bb611973ef0351,6792733903e4f9cd8de6e69b,0,41,1737641628192,scale,2,demographic,I consider myself as:,Not at all masculine,Totally masculine,0,,50,39,7267,965715
jk90xnyke8,67803cd876bfe6551a50a4e5,678f3deb09bb611973ef0351,6792733903e4f9cd8de6e69b,0,42,1737641637294,scale,39,personality,I see myself as someone who...has an active imagination,Strongly disagree,Strongly agree,0,,50,71,9100,974817
jk90xnyke8,67803cd876bfe6551a50a4e5,678f3deb09bb611973ef0351,6792733903e4f9cd8de6e69b,0,43,1737641648217,scale,63,personality,"I see myself as someone who...is sophisticated in art, music, or literature",Strongly disagree,Strongly agree,0,,50,39,10921,985740
jk90xnyke8,67803cd876bfe6551a50a4e5,678f3deb09bb611973ef0351,6792733903e4f9cd8de6e69b,0,45,1737641787085,scale,38,personality,I see myself as someone who...worries a lot,Strongly disagree,Strongly agree,0,,50,23,4591,1124608
jk90xnyke8,67803cd876bfe6551a50a4e5,678f3deb09bb611973ef0351,6792733903e4f9cd8de6e69b,0,46,1737641796299,scale,8,face processing,I see myself as someone who...is unhappy,Strongly disagree,Strongly agree,0,,50,25,9212,1133822
jk90xnyke8,67803cd876bfe6551a50a4e5,678f3deb09bb611973ef0351,6792733903e4f9cd8de6e69b,0,47,1737641804084,scale,33,personality,I see myself as someone who...can be tense,Strongly disagree,Strongly agree,0,,50,55,7783,1141607
jk90xnyke8,67803cd876bfe6551a50a4e5,678f3deb09bb611973ef0351,6792733903e4f9cd8de6e69b,0,48,1737641807931,scale,13,face processing,I see myself as someone who...is aggressive,Strongly disagree,Strongly agree,0,,50,92,3846,1145454
jk90xnyke8,67803cd876bfe6551a50a4e5,678f3deb09bb611973ef0351,6792733903e4f9cd8de6e69b,0,49,1737641819119,scale,31,personality,I see myself as someone who...starts quarrels with others,Strongly disagree,Strongly agree,0,,50,37,11185,1156642
jk90xnyke8,67803cd876bfe6551a50a4e5,678f3deb09bb611973ef0351,6792733903e4f9cd8de6e69b,0,50,1737641823346,scale,52,personality,I see myself as someone who...does things efficiently,Strongly disagree,Strongly agree,0,,50,78,4225,1160868
jk90xnyke8,67803cd876bfe6551a50a4e5,678f3deb09bb611973ef0351,6792733903e4f9cd8de6e69b,0,51,1737641830293,scale,61,personality,I see myself as someone who...likes to cooperate with others,Strongly disagree,Strongly agree,0,,50,99,6946,1167816
jk90xnyke8,67803cd876bfe6551a50a4e5,678f3deb09bb611973ef0351,6792733903e4f9cd8de6e69b,0,52,1737641835938,scale,20,personality,I see myself as someone who...is talkative,Strongly disagree,Strongly agree,0,,50,46,5643,1173461
jk90xnyke8,67803cd876bfe6551a50a4e5,678f3deb09bb611973ef0351,6792733903e4f9cd8de6e69b,0,53,1737641843355,scale,28,personality,"I see myself as someone who...is relaxed, handles stress well",Strongly disagree,Strongly agree,0,,50,65,7414,1180878
jk90xnyke8,67803cd876bfe6551a50a4e5,678f3deb09bb611973ef0351,6792733903e4f9cd8de6e69b,0,55,1737642017848,scale,29,personality,I see myself as someone who...is curious about many different things,Strongly disagree,Strongly agree,0,,50,74,5402,1355371
jk90xnyke8,67803cd876bfe6551a50a4e5,678f3deb09bb611973ef0351,6792733903e4f9cd8de6e69b,0,56,1737642022368,scale,16,face processing,I see myself as someone who...is confident,Strongly disagree,Strongly agree,0,,50,100,4517,1359891
jk90xnyke8,67803cd876bfe6551a50a4e5,678f3deb09bb611973ef0351,6792733903e4f9cd8de6e69b,0,57,1737642028823,scale,41,personality,I see myself as someone who...is generally trusting,Strongly disagree,Strongly agree,0,,50,60,6454,1366346
jk90xnyke8,67803cd876bfe6551a50a4e5,678f3deb09bb611973ef0351,6792733903e4f9cd8de6e69b,0,58,1737642035811,scale,27,personality,I see myself as someone who...can be somewhat careless,Strongly disagree,Strongly agree,0,,50,28,6985,1373334
jk90xnyke8,67803cd876bfe6551a50a4e5,678f3deb09bb611973ef0351,6792733903e4f9cd8de6e69b,0,59,1737642043178,scale,50,personality,"I see myself as someone who...is sometimes shy, inhibited",Strongly disagree,Strongly agree,0,,50,39,7364,1380701
jk90xnyke8,67803cd876bfe6551a50a4e5,678f3deb09bb611973ef0351,6792733903e4f9cd8de6e69b,0,60,1737642053381,scale,22,personality,I see myself as someone who...does a thorough job,Strongly disagree,Strongly agree,0,,50,31,10201,1390904
jk90xnyke8,67803cd876bfe6551a50a4e5,678f3deb09bb611973ef0351,6792733903e4f9cd8de6e69b,0,61,1737642063330,scale,,ATTENTION CHECK,Please drag the slider all the way to the end labeled STRAWBERRY,STRAWBERRY,PINEAPPLE,1,0,50,0,9947,1400853
jk90xnyke8,67803cd876bfe6551a50a4e5,678f3deb09bb611973ef0351,6792733903e4f9cd8de6e69b,0,62,1737642071696,scale,3,demographic,How would you describe your political views?,Very conservative,Very liberal,0,,50,12,8364,1409219
jk90xnyke8,67803cd876bfe6551a50a4e5,678f3deb09bb611973ef0351,6792733903e4f9cd8de6e69b,0,63,1737642082899,scale,54,personality,I see myself as someone who...prefers work that is routine,Strongly disagree,Strongly agree,0,,50,85,11201,1420422
jk90xnyke8,67803cd876bfe6551a50a4e5,678f3deb09bb611973ef0351,6792733903e4f9cd8de6e69b,0,65,1737642251255,scale,18,face processing,I see myself as someone who...is egotistic,Strongly disagree,Strongly agree,0,,50,14,7225,1588778
jk90xnyke8,67803cd876bfe6551a50a4e5,678f3deb09bb611973ef0351,6792733903e4f9cd8de6e69b,0,66,1737642258521,scale,57,personality,I see myself as someone who...makes plans and follows through with them,Strongly disagree,Strongly agree,0,,50,69,7264,1596044
jk90xnyke8,67803cd876bfe6551a50a4e5,678f3deb09bb611973ef0351,6792733903e4f9cd8de6e69b,0,67,1737642269598,scale,48,personality,I see myself as someone who...can be moody,Strongly disagree,Strongly agree,0,,50,16,11076,1607121
jk90xnyke8,67803cd876bfe6551a50a4e5,678f3deb09bb611973ef0351,6792733903e4f9cd8de6e69b,0,68,1737642274117,scale,30,personality,I see myself as someone who...is full of energy,Strongly disagree,Strongly agree,0,,50,73,4517,1611640
rr2fo845v6,5d7085f70a426200186bc676,678f3deb09bb611973ef0351,6792742f3effed800760a6c8,0,1,1737651314921,scale,8,face processing,I see myself as someone who...is unhappy,Strongly disagree,Strongly agree,0,,50,4,4773,44817
rr2fo845v6,5d7085f70a426200186bc676,678f3deb09bb611973ef0351,6792742f3effed800760a6c8,0,2,1737651317573,scale,19,face processing,I see myself as someone who...is responsible,Strongly disagree,Strongly agree,0,,50,67,2652,47469
rr2fo845v6,5d7085f70a426200186bc676,678f3deb09bb611973ef0351,6792742f3effed800760a6c8,0,3,1737651330092,scale,36,personality,I see myself as someone who...has a forgiving nature,Strongly disagree,Strongly agree,0,,50,85,12518,59988
rr2fo845v6,5d7085f70a426200186bc676,678f3deb09bb611973ef0351,6792742f3effed800760a6c8,0,4,1737651334306,scale,17,face processing,I see myself as someone who...is caring,Strongly disagree,Strongly agree,0,,50,100,4213,64202
rr2fo845v6,5d7085f70a426200186bc676,678f3deb09bb611973ef0351,6792742f3effed800760a6c8,0,5,1737651340934,scale,56,personality,I see myself as someone who...is sometimes rude to others,Strongly disagree,Strongly agree,0,,50,9,6627,70830
rr2fo845v6,5d7085f70a426200186bc676,678f3deb09bb611973ef0351,6792742f3effed800760a6c8,0,6,1737651343130,scale,6,face processing,I see myself as someone who...is dominant,Strongly disagree,Strongly agree,0,,50,0,2196,73026
rr2fo845v6,5d7085f70a426200186bc676,678f3deb09bb611973ef0351,6792742f3effed800760a6c8,0,7,1737651346030,scale,16,face processing,I see myself as someone who...is confident,Strongly disagree,Strongly agree,0,,50,12,2898,75926
rr2fo845v6,5d7085f70a426200186bc676,678f3deb09bb611973ef0351,6792742f3effed800760a6c8,0,8,1737651348811,scale,54,personality,I see myself as someone who...prefers work that is routine,Strongly disagree,Strongly agree,0,,50,100,2781,78707
rr2fo845v6,5d7085f70a426200186bc676,678f3deb09bb611973ef0351,6792742f3effed800760a6c8,0,9,1737651351727,scale,2,demographic,I consider myself as:,Not at all masculine,Totally masculine,0,,50,60,2915,81623
rr2fo845v6,5d7085f70a426200186bc676,678f3deb09bb611973ef0351,6792742f3effed800760a6c8,0,10,1737651354929,scale,52,personality,I see myself as someone who...does things efficiently,Strongly disagree,Strongly agree,0,,50,68,3200,84825
rr2fo845v6,5d7085f70a426200186bc676,678f3deb09bb611973ef0351,6792742f3effed800760a6c8,0,11,1737651358174,scale,5,face processing,I see myself as someone who...is trustworthy,Strongly disagree,Strongly agree,0,,50,71,3244,88070
rr2fo845v6,5d7085f70a426200186bc676,678f3deb09bb611973ef0351,6792742f3effed800760a6c8,0,12,1737651360870,scale,63,personality,"I see myself as someone who...is sophisticated in art, music, or literature",Strongly disagree,Strongly agree,0,,50,0,2695,90766
rr2fo845v6,5d7085f70a426200186bc676,678f3deb09bb611973ef0351,6792742f3effed800760a6c8,0,13,1737651365669,scale,60,personality,I see myself as someone who...has few artistic interests,Strongly disagree,Strongly agree,0,,50,100,4798,95565
rr2fo845v6,5d7085f70a426200186bc676,678f3deb09bb611973ef0351,6792742f3effed800760a6c8,0,14,1737651370091,scale,38,personality,I see myself as someone who...worries a lot,Strongly disagree,Strongly agree,0,,50,45,4422,99987
rr2fo845v6,5d7085f70a426200186bc676,678f3deb09bb611973ef0351,6792742f3effed800760a6c8,0,15,1737651373561,scale,24,personality,"I see myself as someone who...is original, comes up with new ideas",Strongly disagree,Strongly agree,0,,50,15,3468,103456
rr2fo845v6,5d7085f70a426200186bc676,678f3deb09bb611973ef0351,6792742f3effed800760a6c8,0,16,1737651375420,scale,42,personality,I see myself as someone who...tends to be lazy,Strongly disagree,Strongly agree,0,,50,100,1859,105316
rr2fo845v6,5d7085f70a426200186bc676,678f3deb09bb611973ef0351,6792742f3effed800760a6c8,0,17,1737651380659,scale,,ATTENTION CHECK,Please drag the slider all the way to the end labeled STRAWBERRY,STRAWBERRY,PINEAPPLE,1,0,50,0,5237,110555
rr2fo845v6,5d7085f70a426200186bc676,678f3deb09bb611973ef0351,6792742f3effed800760a6c8,0,18,1737651383868,scale,31,personality,I see myself as someone who...starts quarrels with others,Strongly disagree,Strongly agree,0,,50,0,3208,113764
rr2fo845v6,5d7085f70a426200186bc676,678f3deb09bb611973ef0351,6792742f3effed800760a6c8,0,19,1737651387276,scale,3,demographic,How would you describe your political views?,Very conservative,Very liberal,0,,50,49,3408,117172
rr2fo845v6,5d7085f70a426200186bc676,678f3deb09bb611973ef0351,6792742f3effed800760a6c8,0,20,1737651391723,scale,51,personality,I see myself as someone who...is considerate and kind to almost everyone,Strongly disagree,Strongly agree,0,,50,80,4445,121619
rr2fo845v6,5d7085f70a426200186bc676,678f3deb09bb611973ef0351,6792742f3effed800760a6c8,0,21,1737651395152,scale,18,face processing,I see myself as someone who...is egotistic,Strongly disagree,Strongly agree,0,,50,1,3429,125048
rr2fo845v6,5d7085f70a426200186bc676,678f3deb09bb611973ef0351,6792742f3effed800760a6c8,0,22,1737651397710,scale,57,personality,I see myself as someone who...makes plans and follows through with them,Strongly disagree,Strongly agree,0,,50,78,2556,127606
rr2fo845v6,5d7085f70a426200186bc676,678f3deb09bb611973ef0351,6792742f3effed800760a6c8,0,23,1737651400318,scale,28,personality,"I see myself as someone who...is relaxed, handles stress well",Strongly disagree,Strongly agree,0,,50,41,2608,130214
rr2fo845v6,5d7085f70a426200186bc676,678f3deb09bb611973ef0351,6792742f3effed800760a6c8,0,24,1737651402164,scale,11,face processing,I see myself as someone who...is mean,Strongly disagree,Strongly agree,0,,50,5,1844,132060
rr2fo845v6,5d7085f70a426200186bc676,678f3deb09bb611973ef0351,6792742f3effed800760a6c8,0,25,1737651403908,scale,39,personality,I see myself as someone who...has an active imagination,Strongly disagree,Strongly agree,0,,50,36,1743,133803
rr2fo845v6,5d7085f70a426200186bc676,678f3deb09bb611973ef0351,6792742f3effed800760a6c8,0,26,1737651405979,scale,33,personality,I see myself as someone who...can be tense,Strongly disagree,Strongly agree,0,,50,71,2070,135875
rr2fo845v6,5d7085f70a426200186bc676,678f3deb09bb611973ef0351,6792742f3effed800760a6c8,0,27,1737651411420,scale,29,personality,I see myself as someone who...is curious about many different things,Strongly disagree,Strongly agree,0,,50,66,5440,141316
rr2fo845v6,5d7085f70a426200186bc676,678f3deb09bb611973ef0351,6792742f3effed800760a6c8,0,28,1737651413564,scale,26,personality,I see myself as someone who...is helpful and unselfish with others,Strongly disagree,Strongly agree,0,,50,77,2144,143460
rr2fo845v6,5d7085f70a426200186bc676,678f3deb09bb611973ef0351,6792742f3effed800760a6c8,0,29,1737651416938,scale,48,personality,I see myself as someone who...can be moody,Strongly disagree,Strongly agree,0,,50,10,3372,146833
rr2fo845v6,5d7085f70a426200186bc676,678f3deb09bb611973ef0351,6792742f3effed800760a6c8,0,30,1737651420623,scale,22,personality,I see myself as someone who...does a thorough job,Strongly disagree,Strongly agree,0,,50,66,3684,150519
rr2fo845v6,5d7085f70a426200186bc676,678f3deb09bb611973ef0351,6792742f3effed800760a6c8,0,31,1737651424703,scale,53,personality,I see myself as someone who...remains calm in tense situations,Strongly disagree,Strongly agree,0,,50,50,4079,154599
rr2fo845v6,5d7085f70a426200186bc676,678f3deb09bb611973ef0351,6792742f3effed800760a6c8,0,33,1737651549509,scale,12,face processing,I see myself as someone who...is boring,Strongly disagree,Strongly agree,0,,50,76,3896,279405
rr2fo845v6,5d7085f70a426200186bc676,678f3deb09bb611973ef0351,6792742f3effed800760a6c8,0,34,1737651552805,scale,1,demographic,I consider myself as:,Not at all feminine,Totally feminine,0,,50,13,3295,282701
rr2fo845v6,5d7085f70a426200186bc676,678f3deb09bb611973ef0351,6792742f3effed800760a6c8,0,35,1737651554574,scale,30,personality,I see myself as someone who...is full of energy,Strongly disagree,Strongly agree,0,,50,0,1768,284470
rr2fo845v6,5d7085f70a426200186bc676,678f3deb09bb611973ef0351,6792742f3effed800760a6c8,0,36,1737651557437,scale,44,personality,I see myself as someone who...is inventive,Strongly disagree,Strongly agree,0,,50,11,2862,287333
rr2fo845v6,5d7085f70a426200186bc676,678f3deb09bb611973ef0351,6792742f3effed800760a6c8,0,38,1737651680674,scale,25,personality,I see myself as someone who...is reserved,Strongly disagree,Strongly agree,0,,50,100,2303,410570
rr2fo845v6,5d7085f70a426200186bc676,678f3deb09bb611973ef0351,6792742f3effed800760a6c8,0,39,1737651682467,scale,32,personality,I see myself as someone who...is a reliable worker,Strongly disagree,Strongly agree,0,,50,67,1792,412363
rr2fo845v6,5d7085f70a426200186bc676,678f3deb09bb611973ef0351,6792742f3effed800760a6c8,0,40,1737651687275,scale,46,personality,I see myself as someone who...can be cold and aloof,Strongly disagree,Strongly agree,0,,50,16,4808,417171
rr2fo845v6,5d7085f70a426200186bc676,678f3deb09bb611973ef0351,6792742f3effed800760a6c8,0,44,1737652079056,scale,40,personality,I see myself as someone who...tends to be quiet,Strongly disagree,Strongly agree,0,,50,100,2370,808952
rr2fo845v6,5d7085f70a426200186bc676,678f3deb09bb611973ef0351,6792742f3effed800760a6c8,0,45,1737652080906,scale,13,face processing,I see myself as someone who...is aggressive,Strongly disagree,Strongly agree,0,,50,0,1850,810802
rr2fo845v6,5d7085f70a426200186bc676,678f3deb09bb611973ef0351,6792742f3effed800760a6c8,0,46,1737652085296,scale,62,personality,I see myself as someone who...is easily distracted,Strongly disagree,Strongly agree,0,,50,93,4388,815192
rr2fo845v6,5d7085f70a426200186bc676,678f3deb09bb611973ef0351,6792742f3effed800760a6c8,0,47,1737652087063,scale,58,personality,I see myself as someone who...gets nervous easily,Strongly disagree,Strongly agree,0,,50,74,1766,816958
rr2fo845v6,5d7085f70a426200186bc676,678f3deb09bb611973ef0351,6792742f3effed800760a6c8,0,48,1737652089494,scale,49,personality,"I see myself as someone who...values artistic, aesthetic experiences",Strongly disagree,Strongly agree,0,,50,0,2430,819390
rr2fo845v6,5d7085f70a426200186bc676,678f3deb09bb611973ef0351,6792742f3effed800760a6c8,0,49,1737652092945,scale,34,personality,"I see myself as someone who...is ingenious, a deep thinker",Strongly disagree,Strongly agree,0,,50,29,3450,822841
rr2fo845v6,5d7085f70a426200186bc676,678f3deb09bb611973ef0351,6792742f3effed800760a6c8,0,50,1737652094888,scale,50,personality,"I see myself as someone who...is sometimes shy, inhibited",Strongly disagree,Strongly agree,0,,50,100,1943,824784
rr2fo845v6,5d7085f70a426200186bc676,678f3deb09bb611973ef0351,6792742f3effed800760a6c8,0,51,1737652097353,scale,21,personality,I see myself as someone who...tends to find fault with others,Strongly disagree,Strongly agree,0,,50,9,2464,827249
rr2fo845v6,5d7085f70a426200186bc676,678f3deb09bb611973ef0351,6792742f3effed800760a6c8,0,52,1737652099424,scale,59,personality,"I see myself as someone who...likes to reflect, play with ideas",Strongly disagree,Strongly agree,0,,50,13,2070,829320
rr2fo845v6,5d7085f70a426200186bc676,678f3deb09bb611973ef0351,6792742f3effed800760a6c8,0,53,1737652107580,scale,55,personality,"I see myself as someone who...is outgoing, sociable",Strongly disagree,Strongly agree,0,,50,0,8155,837476
rr2fo845v6,5d7085f70a426200186bc676,678f3deb09bb611973ef0351,6792742f3effed800760a6c8,0,54,1737652114705,scale,43,personality,"I see myself as someone who...is emotionally stable, not easily upset",Strongly disagree,Strongly agree,0,,50,69,7125,844601
rr2fo845v6,5d7085f70a426200186bc676,678f3deb09bb611973ef0351,6792742f3effed800760a6c8,0,55,1737652116666,scale,35,personality,I see myself as someone who...generates a lot of enthusiasm,Strongly disagree,Strongly agree,0,,50,21,1959,846562
rr2fo845v6,5d7085f70a426200186bc676,678f3deb09bb611973ef0351,6792742f3effed800760a6c8,0,56,1737652120182,scale,41,personality,I see myself as someone who...is generally trusting,Strongly disagree,Strongly agree,0,,50,71,3515,850077
rr2fo845v6,5d7085f70a426200186bc676,678f3deb09bb611973ef0351,6792742f3effed800760a6c8,0,57,1737652122510,scale,15,face processing,I see myself as someone who...is intelligent,Strongly disagree,Strongly agree,0,,50,76,2327,852406
rr2fo845v6,5d7085f70a426200186bc676,678f3deb09bb611973ef0351,6792742f3effed800760a6c8,0,58,1737652124853,scale,23,personality,"I see myself as someone who...is depressed, blue",Strongly disagree,Strongly agree,0,,50,25,2342,854748
