subjectID,prolificID,studyID,sessionID,DEBUG,trialIdx,trialSubmitTS,trialType,questionID,questionCategory,questionText,response,rt,timeElapsed
c1b3u1ydqp,66ccdb313b58971824e9244c,678f3deb09bb611973ef0351,6792750de74ce48af3be2a64,0,5,1737652413260,question,51,personal,"Do you think people can change fundamental things about who they are? If so, what kinds of things? If not, why not?","Yes, I believe people can change fundamental aspects of who they are, through it often requires a deep desire for growth, sustained effort, and the right circumstances. ",139734,655631
c1b3u1ydqp,66ccdb313b58971824e9244c,678f3deb09bb611973ef0351,6792750de74ce48af3be2a64,0,22,1737652705569,question,83,personal,Is there something about you that you struggle to admit to yourself or confront? Why?,"yes, I think everyone, including myself, has aspects struggle to admit or confornt about themselves. for me, it's sometimes difficult to fully knowledge my own limitations or failures, especially in areas where I feel I should excel.",129284,947940
c1b3u1ydqp,66ccdb313b58971824e9244c,678f3deb09bb611973ef0351,6792750de74ce48af3be2a64,0,26,1737652843234,question,140,small talk,"If you could invent a new flavor of ice cream, what would it be?","If I could invent a new flavour of ice cream, I would create creamy base icecream.",128549,1085605
c1b3u1ydqp,66ccdb313b58971824e9244c,678f3deb09bb611973ef0351,6792750de74ce48af3be2a64,0,29,1737653047702,question,164,small talk,What is the last concert or performance you saw? Had you seen the band or performer before? Where?,"The last concert I attended was a performance by the lumineers during their tour in support of their latest album it was my first time seeing them live, and the show was held at an outdoor amphitheater, which created an incredible atmosphere with the open sky and a warm breeze. ",139388,1290073
c1b3u1ydqp,66ccdb313b58971824e9244c,678f3deb09bb611973ef0351,6792750de74ce48af3be2a64,0,37,1737653196837,question,213,small talk,Do you enjoy staying in hotels? What do you like or not like about them?,"I enjoy staying in hotels, primarily because they offer a break from everyday routines and a sense of novelty. I love the feeling of walking into a clean, well organized space that's been prepared jus for me. ",123962,1439208
c1b3u1ydqp,66ccdb313b58971824e9244c,678f3deb09bb611973ef0351,6792750de74ce48af3be2a64,0,63,1737653448058,question,41,personal,"If you were given the chance to relive any day in your life, do you know which day it would be? What happened?","If I were given the chance to relive any day in my life, it would be my anniversary day. that  day was filled with so much   love, joy, and celebration and everything felt beautifully surreal.",174127,1690429
53a7trj0ux,5cdd4befd3651c001950e539,678f3deb09bb611973ef0351,67927436a039c0132dd9fd3c,0,11,1737651547430,question,51,personal,"Do you think people can change fundamental things about who they are? If so, what kinds of things? If not, why not?","I think generally the kind of person you are is set by your own personality. You can make efforts to be different and to a limited extent you may be able to do this but most people 'slip' back into their old ways, it's just the way we are wired I guess.",131023,286751
53a7trj0ux,5cdd4befd3651c001950e539,678f3deb09bb611973ef0351,67927436a039c0132dd9fd3c,0,18,1737651730265,question,111,personal,What would your past self think of your current self? Would you say a lot has changed regarding how you think about the world and what you believe in?,"I don't think I have changed much, my thoughts and beliefs are the same as they always were I think. My choices in life may not have been what I thought they would be in terms of the life I life eg finances, choice of partner.",145173,469587
53a7trj0ux,5cdd4befd3651c001950e539,678f3deb09bb611973ef0351,67927436a039c0132dd9fd3c,0,42,1737651970072,question,213,small talk,Do you enjoy staying in hotels? What do you like or not like about them?,"I love staying in hotels, I like being somewhere new, I like a nice room with a nice bathroom, a little luxury.",121401,709395
53a7trj0ux,5cdd4befd3651c001950e539,678f3deb09bb611973ef0351,67927436a039c0132dd9fd3c,0,51,1737652193826,question,65,personal,What seemingly ordinary moment in your life turned out to be a major turning point?,"When i met my husband, he is not my type at all, we have very little common interests and the younger me would never have pursued a relationship with him. Meeting him helped me to be more understanding and helped me to realise that as long as you are a good person, the rest isn't that important.",180252,933149
53a7trj0ux,5cdd4befd3651c001950e539,678f3deb09bb611973ef0351,67927436a039c0132dd9fd3c,0,52,1737652316651,question,192,small talk,What is the best pair of shoes you own or have owned? What makes them awesome?,"When I was younger I bought a pair of leather thigh high, high heeled boots. They were expensive back then and I couldn't really afford them, I saved up and bought them and they made me feel glamorous. ",122822,1055974
53a7trj0ux,5cdd4befd3651c001950e539,678f3deb09bb611973ef0351,67927436a039c0132dd9fd3c,0,61,1737652484886,question,164,small talk,What is the last concert or performance you saw? Had you seen the band or performer before? Where?,"I went to see an Eminem tribute act on Friday at my local music venue. It is a small place, it doesn't have bi acts but it's a good night out. The act was really good, I had not seen him before. I wen with my grown up son, it was a great night.",129761,1224209
rjwdrr4qa4,58064d91f25c440001678a10,678f3deb09bb611973ef0351,6792746d8de5d2be176d6b63,0,8,1737651511451,question,234,small talk,Describe the weather where you are currently. Is this unusual weather for this time of year?,"The weather is fairly typical for this time of year. It's been in the 50's during the day and around freezing at night. We missed the big snow that hit south of us a few days ago. Where I live the weather in January can range in the 60's to sub-freezing, it's always variable depending on the weather patterns. Currently, the sky is blue and it's a lovely winter's day.",121685,192402
rjwdrr4qa4,58064d91f25c440001678a10,678f3deb09bb611973ef0351,6792746d8de5d2be176d6b63,0,21,1737651678970,question,65,personal,What seemingly ordinary moment in your life turned out to be a major turning point?,"I was working for someone at a summer job when I was a teenager. I had no plans to make that kind of work my career but a meeting with a supervisor changed my mind. He noticed, and I agreed, that I really had a knack and drive to do that kind of work and it made me think to make it something I wanted to continue doing.",124897,359921
rjwdrr4qa4,58064d91f25c440001678a10,678f3deb09bb611973ef0351,6792746d8de5d2be176d6b63,0,30,1737651822571,question,192,small talk,What is the best pair of shoes you own or have owned? What makes them awesome?,"I have a pair of hiking shoes, trail runners, that I wear all the time. I used to wear hiking boots for the most part, but I was recommended these trail-runners and they've been great. Comfortable over long hikes and just as sturdy as boots. They've added quite a lot of enjoyment to my hikes.",120721,503522
rjwdrr4qa4,58064d91f25c440001678a10,678f3deb09bb611973ef0351,6792746d8de5d2be176d6b63,0,34,1737651954057,question,41,personal,"If you were given the chance to relive any day in your life, do you know which day it would be? What happened?","People have asked me this question before, but I always say no, I wouldn't. I can't pick one day. I've had so many wonderful days. Also, I'm future oriented, I look forward to new things while treasuring past experiences. So, no I don't know which day to pick.",122596,635008
rjwdrr4qa4,58064d91f25c440001678a10,678f3deb09bb611973ef0351,6792746d8de5d2be176d6b63,0,36,1737652089336,question,111,personal,What would your past self think of your current self? Would you say a lot has changed regarding how you think about the world and what you believe in?,"I think my past self would be happy with the person I've become. The world has certainly changed a lot in many respects, but in others, things remain the same. I still believe almost everything I did when I was younger. My younger self might be surprised at how much I've grown to be less judgmental and forgiving.",131725,770287
rjwdrr4qa4,58064d91f25c440001678a10,678f3deb09bb611973ef0351,6792746d8de5d2be176d6b63,0,38,1737652213374,question,164,small talk,What is the last concert or performance you saw? Had you seen the band or performer before? Where?,"I saw a bluegrass band perform at a local festival. I hadn't seen them before, they are fairly new and up and coming let's say, not very well known but they did a wonderful show. They played all the old favorites as well as a few original songs.",120867,894325
ruvsvemr8b,5e3c595d955ce604ac669fcb,678f3deb09bb611973ef0351,6792744262445c092a31a004,0,7,1737651472772,question,51,personal,"Do you think people can change fundamental things about who they are? If so, what kinds of things? If not, why not?","Yes I think people can change, if they really want to. they can learn and become more knowleadgeable and so make better decisions, for example about what they eat or ow they spend their time and money. also if there are the right incentives (rewards and consequences), they would be motivated to follow the rules.
they can also change after being socially penalised for something they did.",121190,174165
ruvsvemr8b,5e3c595d955ce604ac669fcb,678f3deb09bb611973ef0351,6792744262445c092a31a004,0,20,1737651631252,question,140,small talk,"If you could invent a new flavor of ice cream, what would it be?","I would want to perfect the flavours I already like instead of coming up with new ones. for example cookies and cream would have more cookies and be creamier, vanilla would be smoother. in all cases i prefer ice cream that is sweet and that melts well.  ",121103,332646
ruvsvemr8b,5e3c595d955ce604ac669fcb,678f3deb09bb611973ef0351,6792744262445c092a31a004,0,32,1737651823052,question,111,personal,What would your past self think of your current self? Would you say a lot has changed regarding how you think about the world and what you believe in?,"depending on how long back I go. my young past self would be a bit disappointed in my career choices and the fact that I don't travel much anymore. if I think of my slightly older younger self, then she would be relieved that I managed to become so financially and emotionally stable and have banished so much drama from my life, even if at the expense of friendships and relationships.",158219,524445
ruvsvemr8b,5e3c595d955ce604ac669fcb,678f3deb09bb611973ef0351,6792744262445c092a31a004,0,58,1737652061169,question,234,small talk,Describe the weather where you are currently. Is this unusual weather for this time of year?,"it's very wet and foggy, it's been raining a lot today. however, this means it's no longer that cold. it's still quite dark and gloomy, but this is not unusual for England in January. ",168285,762563
ruvsvemr8b,5e3c595d955ce604ac669fcb,678f3deb09bb611973ef0351,6792744262445c092a31a004,0,61,1737652246370,question,198,small talk,"Do you know any party tricks? If so, describe them. If not, describe one you would like to learn.","not really although I used to know some magic tricks with cards, but haven't done any for years. I don't really like to draw attention to myself so my trick is to always ask people about themselves, and people normally love that. however it can be annoying as some people just never ask back and talk nonstop, which makes me hate them even if I don't show it.",179913,947764
ruvsvemr8b,5e3c595d955ce604ac669fcb,678f3deb09bb611973ef0351,6792744262445c092a31a004,0,68,1737652399105,question,65,personal,What seemingly ordinary moment in your life turned out to be a major turning point?,"choosing a job that seemed OK and a good decision, which ended up being one of the worst decisions of my life. I ended up being bullied by a colleague and then sexually harassed by a manager. After leaving the job I was depressed and burnout and couldn't work for years. I ruined relationships because of it, and my career suffered immensely. it's been 15 years and I still think about it and regret it and blame myself every single day. ",132223,1100498
ljl2lsvx3b,6526f601bedbae17738408b1,678f3deb09bb611973ef0351,679274085b4c03c2b885001e,0,6,1737651513710,question,111,personal,What would your past self think of your current self? Would you say a lot has changed regarding how you think about the world and what you believe in?,You still haven't accomplished a whole lot in life.  It's past time to be more diligent about improving my credit rating and striving to save more money for retirement.  ,122535,220187
ljl2lsvx3b,6526f601bedbae17738408b1,678f3deb09bb611973ef0351,679274085b4c03c2b885001e,0,16,1737651737881,question,41,personal,"If you were given the chance to relive any day in your life, do you know which day it would be? What happened?",I would have opted to enlist in an officer training school in the Air Force instead of becoming an NCO.  My grades would have needed to be better though.  I would have liked to have been a pilot.,177924,444358
ljl2lsvx3b,6526f601bedbae17738408b1,678f3deb09bb611973ef0351,679274085b4c03c2b885001e,0,34,1737652079445,question,51,personal,"Do you think people can change fundamental things about who they are? If so, what kinds of things? If not, why not?","Yes, I've taken cognitive behavioral therapy and it has changed me in how I initially think about first impressions and situations.",121397,785922
ljl2lsvx3b,6526f601bedbae17738408b1,678f3deb09bb611973ef0351,679274085b4c03c2b885001e,0,50,1737652303521,question,192,small talk,What is the best pair of shoes you own or have owned? What makes them awesome?,I had some dress shoes that were purchased for me by my Mom for attending my sister's wedding.  I don't remember the brand name.  Other than that I've owned some Rockports and was quite happy with them.  They're very light and comfortable.,144390,1009998
ljl2lsvx3b,6526f601bedbae17738408b1,678f3deb09bb611973ef0351,679274085b4c03c2b885001e,0,65,1737652528478,question,213,small talk,Do you enjoy staying in hotels? What do you like or not like about them?,"I'd prefer staying with friends/family, or a b and b or renting a house.  When I think of hotels I think of bedbugs and bedspreads not getting washed every time.  Just have a sort of seedy thought when I think of hotels.",130697,1234955
ljl2lsvx3b,6526f601bedbae17738408b1,678f3deb09bb611973ef0351,679274085b4c03c2b885001e,0,68,1737652659794,question,234,small talk,Describe the weather where you are currently. Is this unusual weather for this time of year?,"It's normal.  It's overcast and relatively cold, in the 50s.  Sometimes we get some chilly rain coming through but for the most part it's just chilly and overcast.",121913,1366271
jk90xnyke8,67803cd876bfe6551a50a4e5,678f3deb09bb611973ef0351,6792733903e4f9cd8de6e69b,0,2,1737640962345,question,213,small talk,Do you enjoy staying in hotels? What do you like or not like about them?,yes i enjoy because of them offer a cool and a relaxation environment ,125192,299868
jk90xnyke8,67803cd876bfe6551a50a4e5,678f3deb09bb611973ef0351,6792733903e4f9cd8de6e69b,0,12,1737641213673,question,83,personal,Is there something about you that you struggle to admit to yourself or confront? Why?,i fail to admit that sometimes i fear failure which cause me to overthink on choices imake,128230,551196
jk90xnyke8,67803cd876bfe6551a50a4e5,678f3deb09bb611973ef0351,6792733903e4f9cd8de6e69b,0,38,1737641608927,question,164,small talk,What is the last concert or performance you saw? Had you seen the band or performer before? Where?,on gospel band hillsong it woow experiencing the goodness of GOD,144927,946450
jk90xnyke8,67803cd876bfe6551a50a4e5,678f3deb09bb611973ef0351,6792733903e4f9cd8de6e69b,0,44,1737641782492,question,198,small talk,"Do you know any party tricks? If so, describe them. If not, describe one you would like to learn.",no i do ot but i would love to no card tricks,134273,1120015
jk90xnyke8,67803cd876bfe6551a50a4e5,678f3deb09bb611973ef0351,6792733903e4f9cd8de6e69b,0,54,1737642012444,question,41,personal,"If you were given the chance to relive any day in your life, do you know which day it would be? What happened?","yes the day i joined campus, and went to the football ground on to be with ball and pass out.",169088,1349967
jk90xnyke8,67803cd876bfe6551a50a4e5,678f3deb09bb611973ef0351,6792733903e4f9cd8de6e69b,0,64,1737642244028,question,51,personal,"Do you think people can change fundamental things about who they are? If so, what kinds of things? If not, why not?","NO, Sometime it is hard since is that what they believe in eg if one if is caring he will but if he is not then he wont be",161126,1581551
rr2fo845v6,5d7085f70a426200186bc676,678f3deb09bb611973ef0351,6792742f3effed800760a6c8,0,32,1737651545612,question,51,personal,"Do you think people can change fundamental things about who they are? If so, what kinds of things? If not, why not?","I think it is possible, but unlikely. I think it would take a major event for someone to change who they are fundamentally. People don't like to change, so in order for change to happen it will take someone major happening to them to make them change their mind on something.",120908,275508
rr2fo845v6,5d7085f70a426200186bc676,678f3deb09bb611973ef0351,6792742f3effed800760a6c8,0,37,1737651678370,question,111,personal,What would your past self think of your current self? Would you say a lot has changed regarding how you think about the world and what you believe in?,"They would be disappointed I am not a professional athlete. I was very good at sports and I should have gone and done major things in sports, but I kept getting injured and let other things take priority over training for sports. I used to have a lot of motivation, but it is no longer around. I think my past self would be sad. ",120933,408266
rr2fo845v6,5d7085f70a426200186bc676,678f3deb09bb611973ef0351,6792742f3effed800760a6c8,0,41,1737651828165,question,164,small talk,What is the last concert or performance you saw? Had you seen the band or performer before? Where?,"The last performance I saw was a live whose line is it anyways show. I had not seen them live before but I saw many of their shows. I saw them near where I live and it was funny. Not many original cast members were there so that was disappointing, but it was the first time I went somewhere by myself so it was an achievement for me. ",140889,558061
rr2fo845v6,5d7085f70a426200186bc676,678f3deb09bb611973ef0351,6792742f3effed800760a6c8,0,42,1737651955871,question,198,small talk,"Do you know any party tricks? If so, describe them. If not, describe one you would like to learn.","I know how to make some balloon animals. I can make a dog, giraffe, parrot on a swing, fish, and sword. I was a clown when I was 12 and I learned how to make these. It is a useless skill, but I know how to make some basic balloon animals. ",127706,685767
rr2fo845v6,5d7085f70a426200186bc676,678f3deb09bb611973ef0351,6792742f3effed800760a6c8,0,43,1737652076685,question,213,small talk,Do you enjoy staying in hotels? What do you like or not like about them?,I don't like staying in hotels. I have to pay money to stay in a smaller room than my house. I also have to leave my house which I do not like doing.,120813,806581
rr2fo845v6,5d7085f70a426200186bc676,678f3deb09bb611973ef0351,6792742f3effed800760a6c8,0,68,1737652278152,question,65,personal,What seemingly ordinary moment in your life turned out to be a major turning point?,Getting as job as an accountant in a department at a university. It somehow turned into me getting into a completely different field in administration than from accounting. I also was never good at math starting in high school so it was weird I became an accountant to begin with.,127133,1008048
0gtwx95cgh,627986ad0b4e17430bd23d80,678f3deb09bb611973ef0351,679274476db9dbf2f2215505,0,21,1737651551521,question,164,small talk,What is the last concert or performance you saw? Had you seen the band or performer before? Where?,"The last concert I was at was Coachella in 2023, where I saw a bunch of different performances. A majority of the performances I saw were from artists that I have never seen before. I purposely chose to see artists that are new to me and explore new music to further improve my music palette. ",136865,271510
0gtwx95cgh,627986ad0b4e17430bd23d80,678f3deb09bb611973ef0351,679274476db9dbf2f2215505,0,35,1737651839882,question,51,personal,"Do you think people can change fundamental things about who they are? If so, what kinds of things? If not, why not?","I think people can fundamentally change a majority of their personality over time or if something traumatic happened to cause a sudden change. Things like being generous, introverted or extroverted, etc. are all subject to change with enough time and experience. Unfortunately, I think some core parts of their personality is seemingly impossible to change, no matter the circumstance. I noticed that very selfish or narcissistic people do not change and will usually think nothing is wrong with them in the first place to change. ",241293,559871
0gtwx95cgh,627986ad0b4e17430bd23d80,678f3deb09bb611973ef0351,679274476db9dbf2f2215505,0,37,1737651973860,question,198,small talk,"Do you know any party tricks? If so, describe them. If not, describe one you would like to learn.","I do not possess any party tricks; however, I would like to learn card tricks. Having a pack of cards around is very easy to do, so if I were to learn card tricks, that would be super fun to do. Everyone loves a good card trick, especially one that requires a lot of impressive dexterity. Learning card tricks will also provide me an arsenal with different tricks up my sleeve. ",130073,693849
0gtwx95cgh,627986ad0b4e17430bd23d80,678f3deb09bb611973ef0351,679274476db9dbf2f2215505,0,41,1737652129679,question,16,personal,What do you value most in a friendship?,"I value trust, open-mindedness, and honesty. Being able to talk to your friends freely and knowing that they are speaking to you from their heart is nothing short of amazing. Knowing that your friends will always have your back and you can trust them with your life is something people should look for when they make friends. I'm a firm believer that your best friends will eventually become your family, if they check off these three things. ",142157,849668
0gtwx95cgh,627986ad0b4e17430bd23d80,678f3deb09bb611973ef0351,679274476db9dbf2f2215505,0,49,1737652370948,question,65,personal,What seemingly ordinary moment in your life turned out to be a major turning point?,"My life was going great up until I quit my last major corporate job back in late 2018. My job at the time was considered a great stepping stone to my career and I figured that I could always return to corporate life if I wanted to. I spent the next year traveling and got it out of my system. Then, as I attempted to get back into the workforce in 2020, the pandemic hit and I struggled to make ends meet. My career fell off a cliff since then and I haven't been able to return to work. I ran into financial issues and to make things worse, I ran into several health issues that is impeding my ability to work or even sit down on a chair. I am currently still going through this right now and I can honestly say that ordinary moment in 2018 turned out to be a major down turn for my life. ",221059,1090937
0gtwx95cgh,627986ad0b4e17430bd23d80,678f3deb09bb611973ef0351,679274476db9dbf2f2215505,0,52,1737652498521,question,213,small talk,Do you enjoy staying in hotels? What do you like or not like about them?,"I somewhat enjoy staying in hotels, mainly because everything is cleaned and you get to feel somewhat pampered, depending on where you stay at. Some hotels offer great amenities like free massages or spas, which I would take full advantage of. If the hotel was for a fantastic getaway, then it would be much more fun. However, if the hotel was just a regular inn for a quick overnight stay, then I do not really care for it because I only use it to sleep and leave. ",122037,1218510
jelds08s99,5bf8f34abdd6400001bd5e66,678f3deb09bb611973ef0351,679273eef85c708981b95923,0,10,1737651694481,question,164,small talk,What is the last concert or performance you saw? Had you seen the band or performer before? Where?,I saw a woman named Olivia Reynolds locally in a nearby state park. She is well-known in the area. She has a great voice. ,132973,436547
jelds08s99,5bf8f34abdd6400001bd5e66,678f3deb09bb611973ef0351,679273eef85c708981b95923,0,35,1737652006613,question,234,small talk,Describe the weather where you are currently. Is this unusual weather for this time of year?,It has been extremely cold lately and it has snowed twice this week. The nights have been in single digits. I am planning a ski trip soon so the snow is welcome,141447,748679
jelds08s99,5bf8f34abdd6400001bd5e66,678f3deb09bb611973ef0351,679273eef85c708981b95923,0,45,1737652241947,question,16,personal,What do you value most in a friendship?,Honesty and friends who care and would do anything for me if I needed help. Friends are honest and never lie. My closest friends have been with me for many years. Compatibility is a necessary aspect.,156109,984013
jelds08s99,5bf8f34abdd6400001bd5e66,678f3deb09bb611973ef0351,679273eef85c708981b95923,0,46,1737652369477,question,198,small talk,"Do you know any party tricks? If so, describe them. If not, describe one you would like to learn.",I would like to learn some card tricks to entertain friends and family. I have a friend who does magic tricks but I struggle to be as good as he is.,127521,1111542
jelds08s99,5bf8f34abdd6400001bd5e66,678f3deb09bb611973ef0351,679273eef85c708981b95923,0,60,1737652600756,question,111,personal,What would your past self think of your current self? Would you say a lot has changed regarding how you think about the world and what you believe in?,"My past self would be proud of my growth, values, ethics, and morals. I have learned a lot about myself over the years",121070,1342822
jelds08s99,5bf8f34abdd6400001bd5e66,678f3deb09bb611973ef0351,679273eef85c708981b95923,0,68,1737652785964,question,83,personal,Is there something about you that you struggle to admit to yourself or confront? Why?,I struggle to accept my flaws and shortcomings and am always trying to perfect things about myself that I am not proud of. ,125989,1528030
6volq0hped,667a2a09c4912ebdc9078387,678f3deb09bb611973ef0351,67927346ea9a9e31a90e4a0a,0,14,1737651355956,question,198,small talk,"Do you know any party tricks? If so, describe them. If not, describe one you would like to learn.",Nope. Some kind of card trick could be cool.,122374,315021
6volq0hped,667a2a09c4912ebdc9078387,678f3deb09bb611973ef0351,67927346ea9a9e31a90e4a0a,0,15,1737651480520,question,51,personal,"Do you think people can change fundamental things about who they are? If so, what kinds of things? If not, why not?","To some extent yes, but for the most part people just are who they are by way of how they grew up/were raised.",124563,439585
6volq0hped,667a2a09c4912ebdc9078387,678f3deb09bb611973ef0351,67927346ea9a9e31a90e4a0a,0,31,1737651661893,question,111,personal,What would your past self think of your current self? Would you say a lot has changed regarding how you think about the world and what you believe in?,Same person with more age,120961,620958
6volq0hped,667a2a09c4912ebdc9078387,678f3deb09bb611973ef0351,67927346ea9a9e31a90e4a0a,0,51,1737651861474,question,65,personal,What seemingly ordinary moment in your life turned out to be a major turning point?,I really don't have any good answer for this,121499,820539
6volq0hped,667a2a09c4912ebdc9078387,678f3deb09bb611973ef0351,67927346ea9a9e31a90e4a0a,0,55,1737651997521,question,234,small talk,Describe the weather where you are currently. Is this unusual weather for this time of year?,Cold and snowy. very status quo for this time of year,122073,956586
6volq0hped,667a2a09c4912ebdc9078387,678f3deb09bb611973ef0351,67927346ea9a9e31a90e4a0a,0,56,1737652118572,question,140,small talk,"If you could invent a new flavor of ice cream, what would it be?",Some kind of dark chocolate. there may be one like that but not that I know of,121048,1077637
0kezqdaye2,66731549db14893d2dcac60b,678f3deb09bb611973ef0351,6792744a6cdfd5c71fec1b06,0,1,1737651444410,question,234,small talk,Describe the weather where you are currently. Is this unusual weather for this time of year?,"There is snow from the ground from two days ago, and it has yet to fully melt. There is also the remnants of ice still present on the road. This is definitely quite unusual weather for this time of year as snow here is a once in 20 years kind of event. And yet it snowed about 2 years ago, and then 3 years before that. ",121332,156945
0kezqdaye2,66731549db14893d2dcac60b,678f3deb09bb611973ef0351,6792744a6cdfd5c71fec1b06,0,7,1737651585428,question,83,personal,Is there something about you that you struggle to admit to yourself or confront? Why?,"I think I struggle to admit to myself that I may have ADHD or a related neurodivergence. I wouldn't know what it is, nor would I wish to self-diagnosis. Yet, I've had a lot of questions about certain personal behaviours that don't tend to match neurotypical behavior. Because of that, I find myself thinking of the possibility.",121082,297963
0kezqdaye2,66731549db14893d2dcac60b,678f3deb09bb611973ef0351,6792744a6cdfd5c71fec1b06,0,12,1737651721592,question,140,small talk,"If you could invent a new flavor of ice cream, what would it be?","If I could invent a new flavour of ice cream, it would probably be flavoured based on the cream filling specifically from DK's Donuts in California. I've only had their donuts once, but their cream has been on my mind ever since. It's a very hard to forget flavor.",121570,434127
0kezqdaye2,66731549db14893d2dcac60b,678f3deb09bb611973ef0351,6792744a6cdfd5c71fec1b06,0,21,1737651870779,question,192,small talk,What is the best pair of shoes you own or have owned? What makes them awesome?,"To be perfectly honest, I've never had a good pair of shoes. My family and I have never had enough money to justify buying actually good shoes. So I've always just replaced them with some cheap Wal-mart shoes once the sole runs out. Because of that, my best pair of shoes would be my current shoes.",120698,583314
0kezqdaye2,66731549db14893d2dcac60b,678f3deb09bb611973ef0351,6792744a6cdfd5c71fec1b06,0,29,1737652013249,question,51,personal,"Do you think people can change fundamental things about who they are? If so, what kinds of things? If not, why not?","It really depends. Typically, the answer is going to be no when it comes to fundamental facets of their personality. However, if it involves fundamental beliefs then the answer could be yes. Generally, you can't change fundamental beliefs intentionally, so traumatic/sudden/stressful events can 'shake' someone's rigidity and lead to such changes. Those changes don't always stick, though.",120649,725783
0kezqdaye2,66731549db14893d2dcac60b,678f3deb09bb611973ef0351,6792744a6cdfd5c71fec1b06,0,38,1737652159260,question,16,personal,What do you value most in a friendship?,"I value my friends, I value their happiness, I value our time together. As long as each of these is stable and prosperous, I am content. Things such as them being interesting/funny/talkative/whatever, they aren't truly important as I'm not looking to get anything out of my friendships. ",122249,871794
kdulryocdj,66e8464aaca8e7ab9719a5ec,678f3deb09bb611973ef0351,6792746156a434796dc7ce99,0,19,1737651562718,question,198,small talk,"Do you know any party tricks? If so, describe them. If not, describe one you would like to learn.","I know the lyrics to a ridiculous amount of songs. My friends used to just scroll through the radio stations, through every genre of music, and I would sing the songs and impress everyone. It's not really that impressive to me. I haven't listened to popular, secular music in years so I would probably not be very good at this now.",133471,263745
kdulryocdj,66e8464aaca8e7ab9719a5ec,678f3deb09bb611973ef0351,6792746156a434796dc7ce99,0,25,1737651710534,question,111,personal,What would your past self think of your current self? Would you say a lot has changed regarding how you think about the world and what you believe in?,"My past self wouldn't even recognize the current me. I was a mentally ill, IV drug addict 5 years ago, and I now have everything I once hoped, prayed and pleaded for back then. I believed in God at that time, but He hadn't brought me back from the dead yet and had not yet revealed Himself to me.",130294,411561
kdulryocdj,66e8464aaca8e7ab9719a5ec,678f3deb09bb611973ef0351,6792746156a434796dc7ce99,0,28,1737651863674,question,192,small talk,What is the best pair of shoes you own or have owned? What makes them awesome?,I used to have these blue Dr. Martin-style combat boots that I got on clearance at Sears about 13 years ago. I absolutely loved them and wore them until the soles fell apart. I also had a pair of black Asics that were great.,146253,564701
kdulryocdj,66e8464aaca8e7ab9719a5ec,678f3deb09bb611973ef0351,6792746156a434796dc7ce99,0,56,1737652123389,question,65,personal,What seemingly ordinary moment in your life turned out to be a major turning point?,"I guess the day I met the man who was to become my husband. I was a staff member at a long-term discipleship program, and he came in as a new resident. I had spoken to him on the phone a few times, but other than that, I didn't know him at all. Over the next several months, I felt an attraction toward him, but it still took a while for me to realize that the Lord had placed him in my life to be my husband.",162304,824416
kdulryocdj,66e8464aaca8e7ab9719a5ec,678f3deb09bb611973ef0351,6792746156a434796dc7ce99,0,58,1737652248155,question,140,small talk,"If you could invent a new flavor of ice cream, what would it be?","I literally just ate a bowl of ice cream! It was chocolate, and I added a broken-up Little Debbie brownie to it. So, I guess that, although I think there already exists a Brownie flavor ice cream. Maybe Cherry Pie-Cheesecake.",121347,949182
kdulryocdj,66e8464aaca8e7ab9719a5ec,678f3deb09bb611973ef0351,6792746156a434796dc7ce99,0,62,1737652411565,question,51,personal,"Do you think people can change fundamental things about who they are? If so, what kinds of things? If not, why not?","Yes and no. I believe that through the Lord, anyone can change, or rather, BE changed, supernaturally, through the work of the Holy Spirit. I know because it happened to me. There are somethings though that cannot be exterminated completely, like our sinful nature to try and be god of our own life. That's a constant battle we fight on this side of Heaven.",154046,1112592
bbdremg0ku,67825576d5858c9d420da538,678f3deb09bb611973ef0351,679274371ee9a75f3160a577,0,11,1737651870277,question,192,small talk,What is the best pair of shoes you own or have owned? What makes them awesome?,"Sneaker 
the are awesome because i love them and their easy to wear ",124168,526505
bbdremg0ku,67825576d5858c9d420da538,678f3deb09bb611973ef0351,679274371ee9a75f3160a577,0,16,1737652250267,question,234,small talk,Describe the weather where you are currently. Is this unusual weather for this time of year?,"sunny for most part of the state is quite dry and hot , however , it experiences an average annual rainfall between 3 inches and 40 inches . the weather is normal for the time of the year ",335198,906495
bbdremg0ku,67825576d5858c9d420da538,678f3deb09bb611973ef0351,679274371ee9a75f3160a577,0,27,1737652869610,question,51,personal,"Do you think people can change fundamental things about who they are? If so, what kinds of things? If not, why not?","yes life experience: significant life events such as trauma, major relationship, or career change, can change a shape of a person' value, beliefs and worldviews 
social and cultural influences ",549649,1525838
bbdremg0ku,67825576d5858c9d420da538,678f3deb09bb611973ef0351,679274371ee9a75f3160a577,0,30,1737653245667,question,41,personal,"If you were given the chance to relive any day in your life, do you know which day it would be? What happened?","Yes a special moment with loves.
happiness and joy, appreciation for life ",358812,1901896
bbdremg0ku,67825576d5858c9d420da538,678f3deb09bb611973ef0351,679274371ee9a75f3160a577,0,44,1737653540666,question,140,small talk,"If you could invent a new flavor of ice cream, what would it be?","""Sakura sunset"" ice cream flower ",182888,2196895
bbdremg0ku,67825576d5858c9d420da538,678f3deb09bb611973ef0351,679274371ee9a75f3160a577,0,58,1737653805250,question,16,personal,What do you value most in a friendship?,"trust, emotional support, personal Growth, share of interest and communication ",166457,2461479
sb3qdgntad,5e56af6a4d4e7d0235efd3a0,678f3deb09bb611973ef0351,67927418d8439c316b7b4f3f,0,2,1737651823953,question,234,small talk,Describe the weather where you are currently. Is this unusual weather for this time of year?,"It has been quite cold and windy here over the last couple of days, which is typical for this time of year. We haven't had much snow, which is a little bit unusual as I live in a place that typically gets a lot of snow over the wintertime. It has also been historically hotter this winter than usual (minus the cold front over the last couple of days). The main issue with the winter weather is the harsh wind.",129386,210767
sb3qdgntad,5e56af6a4d4e7d0235efd3a0,678f3deb09bb611973ef0351,67927418d8439c316b7b4f3f,0,11,1737651981133,question,41,personal,"If you were given the chance to relive any day in your life, do you know which day it would be? What happened?","If I could relive any day of my life, it would be probably be my first day on my college campus. This was a big turning point for me as I felt more ""grown-up"" and faced with so many possibilities--I could be who I wanted to be, make the friends I wanted to make, and have experiences I had never had. Nothing remarkable really happened--it was just the feeling of starting over.",124755,367947
sb3qdgntad,5e56af6a4d4e7d0235efd3a0,678f3deb09bb611973ef0351,67927418d8439c316b7b4f3f,0,15,1737652135775,question,164,small talk,What is the last concert or performance you saw? Had you seen the band or performer before? Where?,"The last concert I saw was Kacey Musgraves in Dallas, TX. I had never seen her perform before; it was an amazing experience. She sings really well live, and she played all my favorite songs. It was also a special concert for her as it was her hometown show. She did a really good job of engaging the audience and even brought out the Dallas Cowboys Cheerleaders to perform with her!",127608,522589
sb3qdgntad,5e56af6a4d4e7d0235efd3a0,678f3deb09bb611973ef0351,67927418d8439c316b7b4f3f,0,16,1737652274601,question,51,personal,"Do you think people can change fundamental things about who they are? If so, what kinds of things? If not, why not?","I'm not really sure people can change fundamental things about who they are. People can definitely make mistakes and learn from them, but I'm not sure they can change the fundamental, core attributes that make them who they are. I think people can change small things, but a person's personality is unlikely to change (no matter what happens). I always think of the big 5 personality factors as being quite stable with other attributes available to change.",138823,661414
sb3qdgntad,5e56af6a4d4e7d0235efd3a0,678f3deb09bb611973ef0351,67927418d8439c316b7b4f3f,0,18,1737652572459,question,213,small talk,Do you enjoy staying in hotels? What do you like or not like about them?,"I enjoy staying in hotels when I'm traveling alone. I feel safe surrounded by people, and it is nice to have someone clean and do the laundry for me. I don't like staying in a hotel with friends or family because you have minimal privacy in a hotel, and you do not have as many spaces to hang out together as you do in an AIRBNB. I think overall, hotels are fine for short stays by yourself, but I would not want to stay in them all the time.",144667,959273
sb3qdgntad,5e56af6a4d4e7d0235efd3a0,678f3deb09bb611973ef0351,67927418d8439c316b7b4f3f,0,57,1737652857353,question,111,personal,What would your past self think of your current self? Would you say a lot has changed regarding how you think about the world and what you believe in?,"I think my past self would think my current self is pretty aligned with how they are. Not much has changed about my perspectives. I do see the world a little harsher and have more of a cynical view of things, which I think comes with getting older. However, I think I am very much the same person--just a little more mature and with more life experiences. I have overall gotten more liberal politically over the last couple of decades, so my self from 20 years ago, might view this as a little bit of a shock.",148099,1244166
evxl4nr06v,66463e3ccc2fcde4d3fabf53,678f3deb09bb611973ef0351,67927460457fc8cbfa6453b9,0,6,1737651496093,question,192,small talk,What is the best pair of shoes you own or have owned? What makes them awesome?,"Vans old school era shoes. They are so versatile and work with shorts, pants, jeans, etc. They are comfortable stylish and the best part is they're never more than $50, sometimes cheaper. They may not be the most comfortable but they have the ability to work with any style here on the west coast. I can wear them all year round. Best bang for the buck shoe I've owned.",137575,183079
evxl4nr06v,66463e3ccc2fcde4d3fabf53,678f3deb09bb611973ef0351,67927460457fc8cbfa6453b9,0,11,1737651638156,question,164,small talk,What is the last concert or performance you saw? Had you seen the band or performer before? Where?,"The last concert I saw was the band Iration. They're my favorite band and have been over the last 10 years. I've probably seen them over 15 times across various cities. This most recent time I saw them in Chula Vista, CA. I first saw them in Philadelphia around 2012 at a very small venue. Since then I've seen them in CA, FL, and NV (las vegas). It's always an enjoyable show and they come out with new music so the show is never stale. It's a beachy rock reggae type music with island vibes. I always go with my friends who love them as well.",123679,325143
evxl4nr06v,66463e3ccc2fcde4d3fabf53,678f3deb09bb611973ef0351,67927460457fc8cbfa6453b9,0,24,1737651791814,question,41,personal,"If you were given the chance to relive any day in your life, do you know which day it would be? What happened?","No day in particular but any day spent with my immediate family during the summer. Some time during August at their beach house in New Jersey. Wakeup go to breakfast, go on a bike ride or workout. Spend all day on the beach, surf, talk, relax. Sun goes down and we crack beers and have a happy hour out there. We head back to the house and shower, get ready for dinner. We go to the clam bar nearby and drink enjoy great food and each others company.",120439,478801
evxl4nr06v,66463e3ccc2fcde4d3fabf53,678f3deb09bb611973ef0351,67927460457fc8cbfa6453b9,0,37,1737651956086,question,83,personal,Is there something about you that you struggle to admit to yourself or confront? Why?,"Yes, sometimes I struggle to advance in life. I can be shy and reserved which I think can cost me. I also get very comfortable with my bubble and way of life but in my mid 30s my priorities have changed for the better. It helps having people around you push you and compete with you. Pull yourself out of your comfort zone.",136263,643073
evxl4nr06v,66463e3ccc2fcde4d3fabf53,678f3deb09bb611973ef0351,67927460457fc8cbfa6453b9,0,40,1737652102879,question,234,small talk,Describe the weather where you are currently. Is this unusual weather for this time of year?,It is very dry and warm here in san diego. Santa ana's have been out of control and definitely helped spread these fires in SoCal. I cannot remember the last time it rained. It's currently 77 and sunny in January. Usually it's low 60s,134319,789866
evxl4nr06v,66463e3ccc2fcde4d3fabf53,678f3deb09bb611973ef0351,67927460457fc8cbfa6453b9,0,49,1737652248528,question,51,personal,"Do you think people can change fundamental things about who they are? If so, what kinds of things? If not, why not?","yes, absolutely. You can do so mentally and physically. Changing the way you think internally or changing the way you look physically which absolutely changes your mental state. This can be done internally by yourself or can be kick started by those around you. I think everyone of us has the ability to change. You just need to change your thinking and/or mindset. ",124743,935515
5bz94zy0b9,674ef0fd10320249899eff81,678f3deb09bb611973ef0351,679274238d8c5575a39c3f92,0,1,1737651469427,question,111,personal,What would your past self think of your current self? Would you say a lot has changed regarding how you think about the world and what you believe in?,"yes i will say a lot has changed,because vi have my husband and children to look after also house chorces ",121779,196481
5bz94zy0b9,674ef0fd10320249899eff81,678f3deb09bb611973ef0351,679274238d8c5575a39c3f92,0,10,1737651633282,question,51,personal,"Do you think people can change fundamental things about who they are? If so, what kinds of things? If not, why not?",yes i think so by reducing somethings in there life because there will scare people away from there life ,120075,360337
5bz94zy0b9,674ef0fd10320249899eff81,678f3deb09bb611973ef0351,679274238d8c5575a39c3f92,0,34,1737651794341,question,16,personal,What do you value most in a friendship?,"trusth,love ",120429,521396
5bz94zy0b9,674ef0fd10320249899eff81,678f3deb09bb611973ef0351,679274238d8c5575a39c3f92,0,35,1737651931319,question,213,small talk,Do you enjoy staying in hotels? What do you like or not like about them?,yes because i was far from my home and some duties even work,136973,658373
5bz94zy0b9,674ef0fd10320249899eff81,678f3deb09bb611973ef0351,679274238d8c5575a39c3f92,0,42,1737652061585,question,234,small talk,Describe the weather where you are currently. Is this unusual weather for this time of year?,"no,its my best weather",121153,788640
5bz94zy0b9,674ef0fd10320249899eff81,678f3deb09bb611973ef0351,679274238d8c5575a39c3f92,0,48,1737652191919,question,140,small talk,"If you could invent a new flavor of ice cream, what would it be?",honessy ice cream an alcholic ice cream for adults,120907,918974
k0s7f5408o,6620b6a209127dafd5b2dfb9,678f3deb09bb611973ef0351,6792735f23b1a317817a0b4d,0,9,1737651397594,question,51,personal,"Do you think people can change fundamental things about who they are? If so, what kinds of things? If not, why not?",I believe that people can change many actions and habits about themself. I feel like any day you can change how you think and that can change your life forever. With new year I changed 3 things about myself and changed who I was by will power. You also can get used to being a certain way until you do not even have to think about it,122482,331837
k0s7f5408o,6620b6a209127dafd5b2dfb9,678f3deb09bb611973ef0351,6792735f23b1a317817a0b4d,0,10,1737651518788,question,41,personal,"If you were given the chance to relive any day in your life, do you know which day it would be? What happened?",I would relive my 10th birthday. It was my favorite day ever. First we went to the store and we got a cake and pop tarts. Next we went to valley fair which is a theme park similar to six flags. When we went home I got a gameboy for my birthday and I played mario golf and listened to cds and ate cake. It was the best day!,121193,453032
k0s7f5408o,6620b6a209127dafd5b2dfb9,678f3deb09bb611973ef0351,6792735f23b1a317817a0b4d,0,25,1737651758881,question,192,small talk,What is the best pair of shoes you own or have owned? What makes them awesome?,My favorite pair of shoes I had was some fake fucci air force ones. They were awesome because I like the colors. It was white and brown with yellow letters. I like that I always recieved compliments because of them. I felt more self esteem when I wore them.,124506,693125
k0s7f5408o,6620b6a209127dafd5b2dfb9,678f3deb09bb611973ef0351,6792735f23b1a317817a0b4d,0,30,1737651901532,question,140,small talk,"If you could invent a new flavor of ice cream, what would it be?",My favorite flavor would be a mocha or latte flavored Ice cream. Because I like coffee and ice cream and I think it would taste great together. The ice cream would make it a sweet flavored coffee treat. Would be great to have in the morning or you could add a esspresso shot or two to it and make a coffee drink,125313,835776
k0s7f5408o,6620b6a209127dafd5b2dfb9,678f3deb09bb611973ef0351,6792735f23b1a317817a0b4d,0,34,1737652046734,question,198,small talk,"Do you know any party tricks? If so, describe them. If not, describe one you would like to learn.","I know how to freestyle rap. Sometimes I will begin to rap and people get surprised I am so good. I have made hundreds of songs in the past, so it is easy for me to do and I am pretty good at it.",131627,980978
k0s7f5408o,6620b6a209127dafd5b2dfb9,678f3deb09bb611973ef0351,6792735f23b1a317817a0b4d,0,49,1737652301906,question,111,personal,What would your past self think of your current self? Would you say a lot has changed regarding how you think about the world and what you believe in?,I think my past self would be surprised I am not doing something creative. I thought I would be a dj as a kid not a manager at a hotel. I would be surprised that I do the same thing every week almost. I have changed many times in the last 36 years but I have not changed much in the last few years. ,129869,1236149
h1vso1ytk4,678c41cb023e304c03871747,678f3deb09bb611973ef0351,6792743dc84ada82dd6bbe78,0,20,1737652719819,question,213,small talk,Do you enjoy staying in hotels? What do you like or not like about them?,Yea i do enjoy being in hotels because it gives me a sense of being on a vacation... The fact that I just have to make orders and I am being served is quite appealing to be honest,146207,1118618
h1vso1ytk4,678c41cb023e304c03871747,678f3deb09bb611973ef0351,6792743dc84ada82dd6bbe78,0,34,1737652956836,question,192,small talk,What is the best pair of shoes you own or have owned? What makes them awesome?,Ok I really love sport shoes and I recently got a pair of some adidas sneakers that I have been craving for a long while... They are really so cute and I love them a lot because they are so comfortable as well,121150,1355636
h1vso1ytk4,678c41cb023e304c03871747,678f3deb09bb611973ef0351,6792743dc84ada82dd6bbe78,0,41,1737653291694,question,16,personal,What do you value most in a friendship?,I don't really want much from a friendship but loyalty,166994,1690494
h1vso1ytk4,678c41cb023e304c03871747,678f3deb09bb611973ef0351,6792743dc84ada82dd6bbe78,0,51,1737653539595,question,41,personal,"If you were given the chance to relive any day in your life, do you know which day it would be? What happened?",Ok maybe the day I got married. The whole celebration was so wonderful everyone I cared about showed up. I was the center of attraction and i'd love for the experience to happen again,128426,1938395
h1vso1ytk4,678c41cb023e304c03871747,678f3deb09bb611973ef0351,6792743dc84ada82dd6bbe78,0,52,1737653661284,question,111,personal,What would your past self think of your current self? Would you say a lot has changed regarding how you think about the world and what you believe in?,"Personally, I do not think I have changed so much as an individual as I have managed to remain my ever loving sweet self",121688,2060084
h1vso1ytk4,678c41cb023e304c03871747,678f3deb09bb611973ef0351,6792743dc84ada82dd6bbe78,0,66,1737653947839,question,198,small talk,"Do you know any party tricks? If so, describe them. If not, describe one you would like to learn.","I know some few card games. I know the one about guessing the card someone selected by dividing into some segments and then taking note of the segment and basically counting the cards to get it
",142381,2346639
ogv9wqg7fk,6715013670bed7e4e955f109,678f3deb09bb611973ef0351,679273edf80b519984e3b0a5,0,5,1737651485126,question,234,small talk,Describe the weather where you are currently. Is this unusual weather for this time of year?,"I dont like thet weather of the year because itren,cold,not sun and i prefer sumer time because its nice to go outside to do lots of think with my kids.Andyes the weather is unusal at this time of the year.",134212,271404
ogv9wqg7fk,6715013670bed7e4e955f109,678f3deb09bb611973ef0351,679273edf80b519984e3b0a5,0,29,1737651817562,question,65,personal,What seemingly ordinary moment in your life turned out to be a major turning point?,One seemingly ordinary moment inmy life that turned out to be major turning poin accurred duruing a routine walk in the park.As i strolled along the familiar soccer.Their laughter and enthusiasm where indection and i found myself about sports,216487,603840
ogv9wqg7fk,6715013670bed7e4e955f109,678f3deb09bb611973ef0351,679273edf80b519984e3b0a5,0,35,1737651973957,question,164,small talk,What is the last concert or performance you saw? Had you seen the band or performer before? Where?,My last concert it take plase in London Uk.Yes i seen the  performer before couple of years in Bulgaria.That is verypopularity person which many people love her,125770,760235
ogv9wqg7fk,6715013670bed7e4e955f109,678f3deb09bb611973ef0351,679273edf80b519984e3b0a5,0,43,1737652167951,question,41,personal,"If you were given the chance to relive any day in your life, do you know which day it would be? What happened?","Graduation day stands out as a privotal moment in my life,filled with mix of emotions that I would love to relieve.It was not just a celebration of academic archivement but also a culmination ofthe year of hard work.",155019,954229
ogv9wqg7fk,6715013670bed7e4e955f109,678f3deb09bb611973ef0351,679273edf80b519984e3b0a5,0,55,1737652342491,question,83,personal,Is there something about you that you struggle to admit to yourself or confront? Why?,"Admitting to oneself can offen be a challenging endeavor,especially when it involves confronting personal flaws or insecurities.",122522,1128768
ogv9wqg7fk,6715013670bed7e4e955f109,678f3deb09bb611973ef0351,679273edf80b519984e3b0a5,0,61,1737652492321,question,213,small talk,Do you enjoy staying in hotels? What do you like or not like about them?,Yes i enjoy to stay in the hotel.I like the hotel wich have 5 stars rewie but i dont like somethimes the price which is very hight and as well if we are with kids we can book two room dont give to us to stay in one room,121193,1278599
rd09qmf9ak,628f7e982aad1788d940317a,678f3deb09bb611973ef0351,67927443225d60b2e1579010,0,8,1737651537628,question,51,personal,"Do you think people can change fundamental things about who they are? If so, what kinds of things? If not, why not?","I believe they can because I have witnessed people changing dramatically parts of their personality like how they care for others when they used to be cold blooded. In fact they can change totally if they get born again with Jesus as their savior, it changes their heart and many times their mind, emotions and basic traits they had previously.",123667,267387
rd09qmf9ak,628f7e982aad1788d940317a,678f3deb09bb611973ef0351,67927443225d60b2e1579010,0,36,1737651809579,question,164,small talk,What is the last concert or performance you saw? Had you seen the band or performer before? Where?,"Wow, it has been many decades since I saw a concert with a band. I think the last one I saw was in the 1970s when I saw a concert by Andre Crouch, that was when I was attending a Bible college. That was in Kansas somewhere, the concert. The college is in Haviland, Kansas. It was the first time I had seen his band.",144126,539337
rd09qmf9ak,628f7e982aad1788d940317a,678f3deb09bb611973ef0351,67927443225d60b2e1579010,0,40,1737651950097,question,192,small talk,What is the best pair of shoes you own or have owned? What makes them awesome?,I have never owned any expensive shoes in my life. The best shoes I've ever had are hiking boots made by Keen. They are super supportive but very light weight and there is no breaking in time because they fit perfectly as soon as you put them on from the box. I'm wearing a pair right now.,122278,679856
rd09qmf9ak,628f7e982aad1788d940317a,678f3deb09bb611973ef0351,67927443225d60b2e1579010,0,53,1737652113616,question,41,personal,"If you were given the chance to relive any day in your life, do you know which day it would be? What happened?","Yes, that would be the day that I broke up with a very lovely girlfriend and it turns out that it was the biggest mistake of my life and I wish I had a chance to remake that stupid decision! But I was young and dumb. If I was in the same situation now I never would have done it.",120870,843375
rd09qmf9ak,628f7e982aad1788d940317a,678f3deb09bb611973ef0351,67927443225d60b2e1579010,0,63,1737652271935,question,83,personal,Is there something about you that you struggle to admit to yourself or confront? Why?,Well I don't want to sound conceited or anything but I don't know of anything that I struggle to admit to myself. I examine my motives and ethics on a continuous basis so I'm sure I would know of something like that. ,122566,1001694
rd09qmf9ak,628f7e982aad1788d940317a,678f3deb09bb611973ef0351,67927443225d60b2e1579010,0,67,1737652406006,question,198,small talk,"Do you know any party tricks? If so, describe them. If not, describe one you would like to learn.","I never go to parties and haven't been to a party for many decades and I don't know any party tricks and am not interested in knowing any. Sorry, this is a very boring answer that I have no information about the question.",121302,1135765
enp2v3f5y4,67232feef94533aeea295950,678f3deb09bb611973ef0351,6792739d90b99d48eed3f2f0,0,4,1737651558963,question,234,small talk,Describe the weather where you are currently. Is this unusual weather for this time of year?,The weather is usual for this time of the year. The weather is leaving clear skies and dry conditions,162813,352549
enp2v3f5y4,67232feef94533aeea295950,678f3deb09bb611973ef0351,6792739d90b99d48eed3f2f0,0,6,1737651684933,question,65,personal,What seemingly ordinary moment in your life turned out to be a major turning point?,The major turning point in my life was when i turned 20 years old. I felt the touch of reality setting in as a black woman who wants to achieve and attain goals in life. ,120853,478520
enp2v3f5y4,67232feef94533aeea295950,678f3deb09bb611973ef0351,6792739d90b99d48eed3f2f0,0,32,1737651998243,question,213,small talk,Do you enjoy staying in hotels? What do you like or not like about them?,I enjoy the hotel space for different reasons and some of which is for meetings or vacations. I don't have much reasons as to disliking a hotel space but i dislike hotels that are not properly maintained in terms of its environment.,150934,791830
enp2v3f5y4,67232feef94533aeea295950,678f3deb09bb611973ef0351,6792739d90b99d48eed3f2f0,0,37,1737652148916,question,41,personal,"If you were given the chance to relive any day in your life, do you know which day it would be? What happened?",I really can't say for sure which day i would like to relieve and what happened ,127317,942503
enp2v3f5y4,67232feef94533aeea295950,678f3deb09bb611973ef0351,6792739d90b99d48eed3f2f0,0,48,1737652383297,question,16,personal,What do you value most in a friendship?,In friendship i value trust a lot and discipline. I love me a friend that we both share common ideas/goals as to the majority aspect of life. I value a friend that don't tell lies as well.,136114,1176884
enp2v3f5y4,67232feef94533aeea295950,678f3deb09bb611973ef0351,6792739d90b99d48eed3f2f0,0,56,1737652548214,question,192,small talk,What is the best pair of shoes you own or have owned? What makes them awesome?,The best pair of shoes that i have owned are the one's gifted to me by my husband on our wedding day. The shoes are awesome because it is durable and I love its designs which symbolizes love.,122600,1341801
hcm548wncq,6779a83677d138c02e3c2076,678f3deb09bb611973ef0351,6792740186d2bbf7e445a8dd,0,1,1737651632405,question,111,personal,What would your past self think of your current self? Would you say a lot has changed regarding how you think about the world and what you believe in?,"Yes i will say a lot has change as to my thinking. In the past i thought things were going to be as it is forever, i never thought life is a process and the environment we live in keeps changing as we grow.",163468,413607
hcm548wncq,6779a83677d138c02e3c2076,678f3deb09bb611973ef0351,6792740186d2bbf7e445a8dd,0,4,1737651780173,question,234,small talk,Describe the weather where you are currently. Is this unusual weather for this time of year?,The winter this time is serious as compare to last year but it is it time now ,127234,561374
hcm548wncq,6779a83677d138c02e3c2076,678f3deb09bb611973ef0351,6792740186d2bbf7e445a8dd,0,16,1737651996731,question,140,small talk,"If you could invent a new flavor of ice cream, what would it be?","Chocolate ice cream .this is made of chocolate, ice, milk and peanut ",129152,777933
hcm548wncq,6779a83677d138c02e3c2076,678f3deb09bb611973ef0351,6792740186d2bbf7e445a8dd,0,21,1737652149594,question,16,personal,What do you value most in a friendship?,What i value most in friendship is love and selfless attitude shown,122433,930796
hcm548wncq,6779a83677d138c02e3c2076,678f3deb09bb611973ef0351,6792740186d2bbf7e445a8dd,0,36,1737652425165,question,51,personal,"Do you think people can change fundamental things about who they are? If so, what kinds of things? If not, why not?","Yes i think people can change fundamental things about the way they are, example is attitude and way of thinking. This can be change by accepting people value and responding to correction",167500,1206366
hcm548wncq,6779a83677d138c02e3c2076,678f3deb09bb611973ef0351,6792740186d2bbf7e445a8dd,0,40,1737652575072,question,164,small talk,What is the last concert or performance you saw? Had you seen the band or performer before? Where?,Yes the last performer i was saw was the Blows last year.,129783,1356273
t7js0fya60,6321d9c78e8e3c04f82a0ea0,678f3deb09bb611973ef0351,6792732c79fa8261643c0a7f,0,15,1737651321276,question,213,small talk,Do you enjoy staying in hotels? What do you like or not like about them?,"I have never stayed in a hotel, but sleeping in the same bed that is used by others sounds like my personal he'll, if I was to stay at a hotel though, I'd want the bed and the room to be comfortable. I hope to stay in a hotel 1 day .",122585,316026
t7js0fya60,6321d9c78e8e3c04f82a0ea0,678f3deb09bb611973ef0351,6792732c79fa8261643c0a7f,0,20,1737651465472,question,51,personal,"Do you think people can change fundamental things about who they are? If so, what kinds of things? If not, why not?","No, I do not believe that people can change fundamental things about who they are, as if you are shy, you will stay shy, if you are depressed you will stay depressed, you can mask the fundamentals but I believe that the fundamental parts of who you are, are meant to always exist within yourself and that's OK.",126584,460223
t7js0fya60,6321d9c78e8e3c04f82a0ea0,678f3deb09bb611973ef0351,6792732c79fa8261643c0a7f,0,25,1737651605179,question,192,small talk,What is the best pair of shoes you own or have owned? What makes them awesome?,"The best pair of shoes that i have ever owned are my work boots, they are awesome because they are sturdy and last a long time.",125883,599931
t7js0fya60,6321d9c78e8e3c04f82a0ea0,678f3deb09bb611973ef0351,6792732c79fa8261643c0a7f,0,29,1737651779550,question,111,personal,What would your past self think of your current self? Would you say a lot has changed regarding how you think about the world and what you believe in?,"My past self would be proud of my current self, because I have overcome alot of challenges in my life, alot has not changed to much regarding how I think of the world, or what I believe in, other than I've become more cautious of the world.",120834,774302
t7js0fya60,6321d9c78e8e3c04f82a0ea0,678f3deb09bb611973ef0351,6792732c79fa8261643c0a7f,0,41,1737651942514,question,83,personal,Is there something about you that you struggle to admit to yourself or confront? Why?,"There is nothing now, but my struggles with my mental health is something that I used to struggle to admit to myself and to others because I used to believe that struggling with mental health made me look weak. But now I'm open about my mental health as it makes me strong.",121078,937266
t7js0fya60,6321d9c78e8e3c04f82a0ea0,678f3deb09bb611973ef0351,6792732c79fa8261643c0a7f,0,59,1737652134336,question,234,small talk,Describe the weather where you are currently. Is this unusual weather for this time of year?,"The weather at the moment is cold, windy and rainy, and this is pretty typical weather for my area at this time of year, we have a named storm Coming which is going to bring rain and strong winds again.",124686,1129088
8z9aje0nzm,6739ff11a2162a865c36fa64,678f3deb09bb611973ef0351,6792746d2fb07fd49550b1b8,0,4,1737652416703,question,41,personal,"If you were given the chance to relive any day in your life, do you know which day it would be? What happened?",Yes i would relive the day i wrote my last exam as an undergraduate. The experience is second to noon till now. i saw myself stepping into a new phase of life majestically.,122656,988576
8z9aje0nzm,6739ff11a2162a865c36fa64,678f3deb09bb611973ef0351,6792746d2fb07fd49550b1b8,0,14,1737652847588,question,140,small talk,"If you could invent a new flavor of ice cream, what would it be?","vanilla. i love it, it is very soothing and relaxing",137288,1419461
8z9aje0nzm,6739ff11a2162a865c36fa64,678f3deb09bb611973ef0351,6792746d2fb07fd49550b1b8,0,18,1737653274622,question,51,personal,"Do you think people can change fundamental things about who they are? If so, what kinds of things? If not, why not?","yes people can change fundamental things about then, especially when it comes to being a better version of ones self, also in some negative characters, some are not just good with crowd and people but can adjust this based on what they have decided to be or achieve",157676,1846496
8z9aje0nzm,6739ff11a2162a865c36fa64,678f3deb09bb611973ef0351,6792746d2fb07fd49550b1b8,0,22,1737653586827,question,213,small talk,Do you enjoy staying in hotels? What do you like or not like about them?,i do not really like staying in the hotel because no place like home and some of the services are not so convenient and cheap. but there are top notch services that makes you feel special.,145992,2158701
8z9aje0nzm,6739ff11a2162a865c36fa64,678f3deb09bb611973ef0351,6792746d2fb07fd49550b1b8,0,43,1737654166829,question,111,personal,What would your past self think of your current self? Would you say a lot has changed regarding how you think about the world and what you believe in?,"Indeed a lot has changed about me, my new self is now a more action oriented person than my old procrastinating self",125844,2738702
8z9aje0nzm,6739ff11a2162a865c36fa64,678f3deb09bb611973ef0351,6792746d2fb07fd49550b1b8,0,66,1737654420833,question,234,small talk,Describe the weather where you are currently. Is this unusual weather for this time of year?,"its is cold and chilly, Just as expected at this time in the UK",123576,2992707
ptr8a3uxb9,60b8f2c365ec36a3395896b6,678f3deb09bb611973ef0351,67927448b48e9f48cb87cff6,0,8,1737652596788,question,16,personal,What do you value most in a friendship?,"I value common values, common sense of humour. Many of my friends I have known since I was very young and I find that we have shared experiences together that bond us. We can laugh about the things we did as teenagers and reminisce, and I find that to be irreplaceable. My friends mostly share the same political leanings as I do. I could not be friends with someone who was very right wing.",144885,1304160
ptr8a3uxb9,60b8f2c365ec36a3395896b6,678f3deb09bb611973ef0351,67927448b48e9f48cb87cff6,0,15,1737652747006,question,140,small talk,"If you could invent a new flavor of ice cream, what would it be?",I would invent a cherry and marzipan flavoured ice cream as these are two of my favourite flavours and I think they go well together. I think this is quite a unique flavour and very indulgent. ,125688,1454377
ptr8a3uxb9,60b8f2c365ec36a3395896b6,678f3deb09bb611973ef0351,67927448b48e9f48cb87cff6,0,16,1737652871128,question,192,small talk,What is the best pair of shoes you own or have owned? What makes them awesome?,"I had a pair of black knee high leather boots that were quite high, they made me look very tall and they were sexy. The best thing about them though, was that they were really comfortable, which is unusual for any high-heeled footwear. I wore them a lot. They went well with lots of outfits. I tried to get another pair when they wore out, but they had been discontinued.",124122,1578500
ptr8a3uxb9,60b8f2c365ec36a3395896b6,678f3deb09bb611973ef0351,67927448b48e9f48cb87cff6,0,27,1737653054453,question,198,small talk,"Do you know any party tricks? If so, describe them. If not, describe one you would like to learn.","I don't know any party tricks, but if I could learn to, I would like to become a balloon modeller. I have a friend who does this and she can mould some really cool stuff with balloons, she delights everyone with her creations, so I would love to be able to do this. Unfortunately, I hate the sound of balloons popping, so I don't think I am going to be able to fulfil this ambition. ",142688,1761825
ptr8a3uxb9,60b8f2c365ec36a3395896b6,678f3deb09bb611973ef0351,67927448b48e9f48cb87cff6,0,28,1737653179802,question,111,personal,What would your past self think of your current self? Would you say a lot has changed regarding how you think about the world and what you believe in?,"My past self would probably be sad that I hadn't achieved all that I had hoped to achieve. I had big dreams when I was younger. Now I have learned a lot about the world, I think I was quite naive when I was younger, now I am cynical and sarcastic. My past self would be sad that I have put on weight when I used to have an amazing figure. ",125352,1887174
ptr8a3uxb9,60b8f2c365ec36a3395896b6,678f3deb09bb611973ef0351,67927448b48e9f48cb87cff6,0,54,1737653420580,question,83,personal,Is there something about you that you struggle to admit to yourself or confront? Why?,"I struggle to confront that I probably need to divorce my husband. I am miserable with him. He talks to me like I am a piece of crap sometimes. I don't think I can handle the emotional turmoil of it all right now though, and the thought of having to sell the house and move again fills me with dread. So, I stay where I am at the moment. I will need to confront it one day if nothing changes in our relationship.",125765,2127952
4vxw7vcxmz,64aff8a2c8ddc83286a349c3,678f3deb09bb611973ef0351,679273c76348ec5baccc0e11,0,11,1737651579815,question,16,personal,What do you value most in a friendship?,"A loyal person who knows me very well, well enough to tell me when I'm wrong, and is patient, truthful and kind. A friend knows we will help each other out in bad times and that there is mutual trust, not to be taken for granted. ",125158,275403
4vxw7vcxmz,64aff8a2c8ddc83286a349c3,678f3deb09bb611973ef0351,679273c76348ec5baccc0e11,0,51,1737651904037,question,140,small talk,"If you could invent a new flavor of ice cream, what would it be?","Sweet lime and red pepper sorbet, if it hasn't already been done, would work best as sorbet or ice.",120747,599624
4vxw7vcxmz,64aff8a2c8ddc83286a349c3,678f3deb09bb611973ef0351,679273c76348ec5baccc0e11,0,53,1737652042009,question,51,personal,"Do you think people can change fundamental things about who they are? If so, what kinds of things? If not, why not?","I think fundamental things can be worked on to some extent and improved, such as temper and knowledge (I hate to say intellegence), but fundamental things will always remain.",130725,737597
4vxw7vcxmz,64aff8a2c8ddc83286a349c3,678f3deb09bb611973ef0351,679273c76348ec5baccc0e11,0,63,1737652210135,question,213,small talk,Do you enjoy staying in hotels? What do you like or not like about them?,"I don't like staying in hotels as an adult.  They smell weird and all pretty much have the same qualities: bed, chair, TV, bible in the drawer if Gideon is still a thing.  A cheap motel has more character.  ",125855,905723
4vxw7vcxmz,64aff8a2c8ddc83286a349c3,678f3deb09bb611973ef0351,679273c76348ec5baccc0e11,0,64,1737652336568,question,65,personal,What seemingly ordinary moment in your life turned out to be a major turning point?,"A co-worker who used to drive me crazy at work was impressed by something I did when she first came to work in the department and I trained her, and when I left work because of cancer treatment she remembered that and shared it with everyone.  I don't always form correct impressions about people. ",126431,1032156
4vxw7vcxmz,64aff8a2c8ddc83286a349c3,678f3deb09bb611973ef0351,679273c76348ec5baccc0e11,0,65,1737652462374,question,234,small talk,Describe the weather where you are currently. Is this unusual weather for this time of year?,"It's a bright and sunny morning (Sonoran desert).  It's also been very cold for the last 10 days and is 49 now.  Pipes froze overnight.  It's very unusual to be so cold for such as sustained period.  People (""snowbirds"") come here for mid winters and are disappointed in this.",125803,1157962
gdhhaxum3y,643480e93c33701dfe923abd,678f3deb09bb611973ef0351,67913beb04790eef1237f4ae,0,2,1737571629798,question,234,small talk,Describe the weather where you are currently. Is this unusual weather for this time of year?,The weather is cloudy and cold. It is a little unusual in that we have no snow. ,141698,311003
gdhhaxum3y,643480e93c33701dfe923abd,678f3deb09bb611973ef0351,67913beb04790eef1237f4ae,0,10,1737571865688,question,83,personal,Is there something about you that you struggle to admit to yourself or confront? Why?,"No. at my age I am at peace with myself for the most part. There is no need to pretend to be something or someone else.
",167873,546893
gdhhaxum3y,643480e93c33701dfe923abd,678f3deb09bb611973ef0351,67913beb04790eef1237f4ae,0,23,1737572027635,question,65,personal,What seemingly ordinary moment in your life turned out to be a major turning point?,I was at work one day and I had someone that came to job shadow me. After spending several hours together we got along well. About a week later we ran into each other. We wound up getting married.,122255,708840
gdhhaxum3y,643480e93c33701dfe923abd,678f3deb09bb611973ef0351,67913beb04790eef1237f4ae,0,25,1737572156883,question,140,small talk,"If you could invent a new flavor of ice cream, what would it be?","It would be some variation or combination with chocolate. Chocolate is my favorite, so I wouldn't want to miss that as an ingredient.
",121857,838088
gdhhaxum3y,643480e93c33701dfe923abd,678f3deb09bb611973ef0351,67913beb04790eef1237f4ae,0,51,1737572373493,question,111,personal,What would your past self think of your current self? Would you say a lot has changed regarding how you think about the world and what you believe in?,"My past self would be proud of my current self. I have overcome some things and become stronger as a result. The world is always changing, so we have no choice but to adapt to it.

",120890,1054698
gdhhaxum3y,643480e93c33701dfe923abd,678f3deb09bb611973ef0351,67913beb04790eef1237f4ae,0,67,1737572544026,question,164,small talk,What is the last concert or performance you saw? Had you seen the band or performer before? Where?,"The last concert that I went to was Nathanial Ratliff and the Night Sweats at the Xcel Energy Center. They put on a really great show, it was even better than I was expecting.",122312,1225231
21w17vpz6x,66d69d42515fac1f2273d10e,678f3deb09bb611973ef0351,679273009e3a8412ad167116,0,2,1737651116777,question,234,small talk,Describe the weather where you are currently. Is this unusual weather for this time of year?,"It is very typical for a January in the south. There are a lot of ups and downs. We have some bitterly cold days, but we also experience days warm enough to break out the spring clothes. Truly, we get a little bit of everything around here, and it is a good idea to keep your wardrobe varied all the time since you can never predict anything with certainty. ",120595,172124
21w17vpz6x,66d69d42515fac1f2273d10e,678f3deb09bb611973ef0351,679273009e3a8412ad167116,0,3,1737651239046,question,65,personal,What seemingly ordinary moment in your life turned out to be a major turning point?,"It was when I was diagnosed with depressionand anxiety. It seemed like something that would be temporary, but it changed my entire perspective on life. I learned to rely on the power of faith and the strength of my own mind to make it day to day. I learned to value the simple pleasures of life and to set my goals on a daily basis, rather than looking at the whole picture. It made me treasure the act of living.",122264,294394
21w17vpz6x,66d69d42515fac1f2273d10e,678f3deb09bb611973ef0351,679273009e3a8412ad167116,0,10,1737651380882,question,111,personal,What would your past self think of your current self? Would you say a lot has changed regarding how you think about the world and what you believe in?,"I am far more serious about life. I celebrate the small things that never satisfied me in the past. I always wanted more and more growing up, and I strove for fame. Now, I consider my relationships and the pleasure of a simple, slow life dedicated to my faith and to helping others. I would not go back to the worldly way that I was in the past. ",121346,436230
21w17vpz6x,66d69d42515fac1f2273d10e,678f3deb09bb611973ef0351,679273009e3a8412ad167116,0,18,1737651535431,question,83,personal,Is there something about you that you struggle to admit to yourself or confront? Why?,"I have binge eating disorder. I felt disgusting and out of control. I also feel very embarrassed about how much and what I am able to eat when my binges get out of control. I am very depressed anad discouraged, but I feel that I will ultimately triumph over this disorder and be healthier and happier. ",122566,590779
21w17vpz6x,66d69d42515fac1f2273d10e,678f3deb09bb611973ef0351,679273009e3a8412ad167116,0,28,1737651701564,question,140,small talk,"If you could invent a new flavor of ice cream, what would it be?","I would invent something that is based on cool whip and fluffy goodness. I want a white, fluffy dessert that literally melts in my mouth. I might like a banana cream pie flavor or something like a pudding that will be creamy or light. ",122617,756912
21w17vpz6x,66d69d42515fac1f2273d10e,678f3deb09bb611973ef0351,679273009e3a8412ad167116,0,38,1737651901649,question,192,small talk,What is the best pair of shoes you own or have owned? What makes them awesome?,"I currently own my dream shoes. They are sneakers with big hearts on the top. They are comfy and cozy, and they keep my feet warm and comfortable. I walk and run much more effectively when I am wearing these shoes. They match virtually everything you wear, and I have even worn them to church with a long dress. ",153380,956997
7wcop2edcy,6666c9bb967c9f41aeae6768,678f3deb09bb611973ef0351,6792940324f70deabdf88eb4,0,5,1737660246149,question,164,small talk,What is the last concert or performance you saw? Had you seen the band or performer before? Where?,Last concert Ive been to was Afterlife ( Anyma ). it was my first time seeing his show and him  performing,188262,835934
7wcop2edcy,6666c9bb967c9f41aeae6768,678f3deb09bb611973ef0351,6792940324f70deabdf88eb4,0,16,1737660441479,question,234,small talk,Describe the weather where you are currently. Is this unusual weather for this time of year?,"The weather is cold, rainy with grey skies. It's definitely not unusual for this time of the year.",121491,1031265
7wcop2edcy,6666c9bb967c9f41aeae6768,678f3deb09bb611973ef0351,6792940324f70deabdf88eb4,0,36,1737660749588,question,111,personal,What would your past self think of your current self? Would you say a lot has changed regarding how you think about the world and what you believe in?,"I would be slightly disapointed, especialy about my carrier and financial state. But my past self would be proud of my beliefs, values and understanding about life and people around.",142521,1339374
7wcop2edcy,6666c9bb967c9f41aeae6768,678f3deb09bb611973ef0351,6792940324f70deabdf88eb4,0,48,1737660984499,question,41,personal,"If you were given the chance to relive any day in your life, do you know which day it would be? What happened?","I would want to relive best days of my childhood. Hard to remember particular day, but being careless, with no responsabilities, pure joy and happiness over the smallest things in life is something that most people lack today",149287,1574285
7wcop2edcy,6666c9bb967c9f41aeae6768,678f3deb09bb611973ef0351,6792940324f70deabdf88eb4,0,57,1737661238602,question,83,personal,Is there something about you that you struggle to admit to yourself or confront? Why?,"I struggle to confront my fiers of stepping out of comfort zone and improving my carrier. I find ways and reasons to avoi doing big steps, because I'm afraid of changes and dissapointment",208267,1828388
7wcop2edcy,6666c9bb967c9f41aeae6768,678f3deb09bb611973ef0351,6792940324f70deabdf88eb4,0,58,1737661365655,question,198,small talk,"Do you know any party tricks? If so, describe them. If not, describe one you would like to learn.","Nothing comes to my mind at the moment, but I would want to try human table trick :D",127050,1955441
1eh740hh8p,5ae3223938df950001455e66,678f3deb09bb611973ef0351,6792742a12c0661e6a6f2767,0,31,1737651554986,question,41,personal,"If you were given the chance to relive any day in your life, do you know which day it would be? What happened?",I would relive the day I traveled to Tokyo for the first time. Everything was new and exciting. I was on the other side of the planet and was taking in a completely different culture.,124914,297365
1eh740hh8p,5ae3223938df950001455e66,678f3deb09bb611973ef0351,6792742a12c0661e6a6f2767,0,40,1737651702861,question,164,small talk,What is the last concert or performance you saw? Had you seen the band or performer before? Where?,I saw a theater performance in Beijing. It was in a large national venue. The seats were smaller than the US so I felt cramped. I was tired and left early because it was also boring. I was surprised that it wasn't entertaning to me.,121379,445240
1eh740hh8p,5ae3223938df950001455e66,678f3deb09bb611973ef0351,6792742a12c0661e6a6f2767,0,62,1737651948518,question,234,small talk,Describe the weather where you are currently. Is this unusual weather for this time of year?,"The weather is cold. The temperature is in the 40s. For this time of year, it is not unusual. ",121239,690897
1eh740hh8p,5ae3223938df950001455e66,678f3deb09bb611973ef0351,6792742a12c0661e6a6f2767,0,63,1737652103027,question,65,personal,What seemingly ordinary moment in your life turned out to be a major turning point?,"I took an international vacation that I thought would be somewhat interesting. It was a lot of culture shock that I enjoyed. I no longer care to travel within the US or other westernized countries simply because these are now run of the mill, boring experiences. I want to be a fish out of water every time now.",154507,845405
1eh740hh8p,5ae3223938df950001455e66,678f3deb09bb611973ef0351,6792742a12c0661e6a6f2767,0,65,1737652247708,question,192,small talk,What is the best pair of shoes you own or have owned? What makes them awesome?,The best pair of shoes I owned are Nike running shoes. They are awesome because my joints don't hurt when I jog now. I look forward to exercising because I know my running shoes will protect me from the pavement.,140751,990087
1eh740hh8p,5ae3223938df950001455e66,678f3deb09bb611973ef0351,6792742a12c0661e6a6f2767,0,68,1737652379493,question,83,personal,Is there something about you that you struggle to admit to yourself or confront? Why?,I struggle to admit I can easily get moody or emotional. I consider it a challenge everytime I find myself getting upset over small things that don't matter in the bigger picture. ,121931,1121871
swjjj29g8p,675f6001dd0e83d71805de6f,678f3deb09bb611973ef0351,6792941dffc10bd4ab25fbdf,0,2,1737659700466,question,16,personal,What do you value most in a friendship?,"I love my friendships.  They fulfill me in many ways, including:  having someone to share experiences, laughing, chatting, commiserating and sharing life.   Friendships require work and effort to maintain.  They require constant care and feeding, like a plant.  For those that believe that friendships should be easy and frictionless, has never had to work through the trials and tribulations of having a friend.",146508,246155
swjjj29g8p,675f6001dd0e83d71805de6f,678f3deb09bb611973ef0351,6792941dffc10bd4ab25fbdf,0,16,1737659883189,question,164,small talk,What is the last concert or performance you saw? Had you seen the band or performer before? Where?,"The last performance I saw was at the Dr. Philips Center in Orlando.  It was with Chris Rock ""right after"" the infamous ""slap heard around the world"".   I only watched CR on old videos, or on cable channels.  First time seeing him live and it was a great experience.   Can't say I enjoyed the price, but that is neither her not there.",125937,428878
swjjj29g8p,675f6001dd0e83d71805de6f,678f3deb09bb611973ef0351,6792941dffc10bd4ab25fbdf,0,19,1737660026437,question,213,small talk,Do you enjoy staying in hotels? What do you like or not like about them?,"It depends on the hotel.  If it is a high quality resort hotel, love it.   Clean, great service, nice environment to just relax and enjoy.  However, I've been to some negative star hotels where we needed to place everything in a garbage bag afterwards to insure any critters did not hitchhike back to our home.  But all-in-all, who does not like living in a place where you don't have to clean everyday.",133063,572126
swjjj29g8p,675f6001dd0e83d71805de6f,678f3deb09bb611973ef0351,6792941dffc10bd4ab25fbdf,0,25,1737660192223,question,83,personal,Is there something about you that you struggle to admit to yourself or confront? Why?,"I need to feel in control, be prepared and have an answer for everything.   I hate emergencies that I am not prepared for.  I'm at the age where there should be few surprises in life and I should have ""seen everything"".   This is not about ""are you ready for a bear attack"" have an had bear self defense training or a bear spray.  More around, financial surprises, emotional emergencies, life changes (i.e. need to move).   I feel I should be more flexible in life and roll with the punches.",143240,737912
swjjj29g8p,675f6001dd0e83d71805de6f,678f3deb09bb611973ef0351,6792941dffc10bd4ab25fbdf,0,27,1737660339478,question,140,small talk,"If you could invent a new flavor of ice cream, what would it be?","Doughnut flavored.  ""Meal Ice Cream"".  i.e. Turkey dinner, gravy and mashed potates.   Fried Chicken Ice Cream.   Spicy Ice Cream.   Ice cream that crackles in the mouth.   Or high flouride ice cream =  A ""healthy"" segment.",143091,885167
swjjj29g8p,675f6001dd0e83d71805de6f,678f3deb09bb611973ef0351,6792941dffc10bd4ab25fbdf,0,56,1737660629385,question,111,personal,What would your past self think of your current self? Would you say a lot has changed regarding how you think about the world and what you believe in?,"My past self would be surprised at how mature I am now.  Looking back, I was surprised at how innocent and wet behind the ears I was.  Surprised to be alive really.   I accept the world better now, I fight a little more for myself, I change my view of the world to try understand what is IN my control and OUT of my control.   My past me would be surprised at how I look forward to the future more and not think so much in the moment.   Also, my past self would be surprised at how much happier I am now these days.",166764,1175074
qhww4rqw6t,62877d5f6a054e53313ac916,678f3deb09bb611973ef0351,67929414a45ad1a8620c535e,0,8,1737660271400,question,213,small talk,Do you enjoy staying in hotels? What do you like or not like about them?,"I enjoy staying in them because everything is taken care of for me and and I feel like they serve as an escape from regular life duties. In addition, because there is not much to do in them, I feel compelled to explore the surrounding area, which is usually a novel experience that is typically very fun. I also like the fact that unlike with AirBnB's, I do not really have to worry about anything like tasks, cleaning, or other guests. Staying in hotels are a fun way to recharge with complete privacy and no expectations.",121982,843654
qhww4rqw6t,62877d5f6a054e53313ac916,678f3deb09bb611973ef0351,67929414a45ad1a8620c535e,0,22,1737660434496,question,16,personal,What do you value most in a friendship?,"I suppose I value common interests as well as a synergetic vibe. The type of vibe where both people understand each other and also appreciate the common vibe. Having common interests is also just fun as it allows you to discover things together and engage in novel experiences. I also value having someone to talk to even if things are not going well. Overall, the social aspect of friendships is what makes them personally valuable.",122398,1006755
qhww4rqw6t,62877d5f6a054e53313ac916,678f3deb09bb611973ef0351,67929414a45ad1a8620c535e,0,52,1737660647029,question,192,small talk,What is the best pair of shoes you own or have owned? What makes them awesome?,"The best pair of shoes I own is a pair of tennis shoes for the sport of tennis. They are no longer being made yet are still sought after. They are the best pair because they provide a perfect level of support when doing any physical activity and unlike most shoes, provide great stability and support for lateral movement. In addition, you can basically slip them on due to their slip on design. The soles also seem oddly durable and long lasting, which is rare. The shoes are also great for people with wide feet and who need arch support, which is tough to find these days.",120770,1219287
qhww4rqw6t,62877d5f6a054e53313ac916,678f3deb09bb611973ef0351,67929414a45ad1a8620c535e,0,58,1737660781800,question,234,small talk,Describe the weather where you are currently. Is this unusual weather for this time of year?,"The weather right now is bitterly cold. There is a polar vortex causing bitterly cold air to reduce temperatures. In addition, there is a nasty wind which when combined with the cold air, can easily cause frostbite. This weather is essentially the coldest weather of the year, which is not unusual for this month of the year. However, the fact that most of the country is at or below freezing is quite unusual regardless.",124263,1354059
qhww4rqw6t,62877d5f6a054e53313ac916,678f3deb09bb611973ef0351,67929414a45ad1a8620c535e,0,62,1737660918174,question,65,personal,What seemingly ordinary moment in your life turned out to be a major turning point?,"This is tough to think about but I would say discovering premium, organic produce and randomly doing a deep dive into produce. I was unhealthy and unsatisfied with my weight for quite some time but this discovery made me interested in eating healthy foods, almost as if I were gamifying my health. Since that point, I have lost a decent amount of weight and been very active.",123285,1490432
qhww4rqw6t,62877d5f6a054e53313ac916,678f3deb09bb611973ef0351,67929414a45ad1a8620c535e,0,64,1737661053943,question,111,personal,What would your past self think of your current self? Would you say a lot has changed regarding how you think about the world and what you believe in?,"My past self might not be able to predict what my current self is like given how absolutely unpredictable both life and the world can be. My past self might be able to understand my current self but might find some things like my beliefs surprising given that my past self might have been idealistic and engaged in simplistic, stereotypical thinking about the way things would pan out in the future. This is likely to due the profound change in how society operates/feels given the sudden advent of social media.",120428,1626202
2zenl3lgkp,660ff598a3391e9b7d8feab4,678f3deb09bb611973ef0351,6792746beb65b30439d88bea,0,5,1737651554831,question,192,small talk,What is the best pair of shoes you own or have owned? What makes them awesome?,"The best pair of shoes I have owned were lightweight, steel toe shoes. They were very versatile where I could wear them for work or out casually. Also very comfortable. ",121547,232654
2zenl3lgkp,660ff598a3391e9b7d8feab4,678f3deb09bb611973ef0351,6792746beb65b30439d88bea,0,42,1737652037963,question,111,personal,What would your past self think of your current self? Would you say a lot has changed regarding how you think about the world and what you believe in?,"My past self would be proud of who I am as a person and most importantly who I am spiritually but also slightly disappointed in my ""status"". A whole lot has changed on how I view the world now compared to the past. Most if not all of it is attributed to my personal relationship with God through Jesus Christ. One of the previous sliding scale questions asked if I was religious and I chose ""strongly disagree"" Because I don't believe in religion but I thoroughly believe in relationship. Huge difference. ",277086,715786
2zenl3lgkp,660ff598a3391e9b7d8feab4,678f3deb09bb611973ef0351,6792746beb65b30439d88bea,0,48,1737652357603,question,213,small talk,Do you enjoy staying in hotels? What do you like or not like about them?,I enjoy staying in hotels because I don't have to wash my own sheets nor washcloths & towels. I also like the room service if needed. I love using a key card instead of using a metal key to insert into a lock. I also LOVE when a hotel offers free breakfast. If a hotel is located within walking distance to attractions and good restaurants that's always a big plus. The main thing I don't like about hotels is not having my little creature comforts from home. ,267260,1035425
2zenl3lgkp,660ff598a3391e9b7d8feab4,678f3deb09bb611973ef0351,6792746beb65b30439d88bea,0,50,1737652497457,question,140,small talk,"If you could invent a new flavor of ice cream, what would it be?","GREAT question since I love ice cream. My favorite flavor flavor is Blue Bell Pistachio Almond but if I could create a flavor, I'd probably make Pistachio Strawberry Cheesecake ice cream. ",133771,1175280
2zenl3lgkp,660ff598a3391e9b7d8feab4,678f3deb09bb611973ef0351,6792746beb65b30439d88bea,0,56,1737652721458,question,41,personal,"If you were given the chance to relive any day in your life, do you know which day it would be? What happened?",Yes. If I could relive any day in my life it would be the day I felt closest to God. I was literally driving and I was so filled with God's love and Holy Spirit that I literally and consciously thought to myself if I died right now in a car accident I'd still be the happiest person in the world because I knew without a shadow of a doubt God is real and loves me completely and has great power to effect tremendous joy and grace in my life. ,188952,1399281
2zenl3lgkp,660ff598a3391e9b7d8feab4,678f3deb09bb611973ef0351,6792746beb65b30439d88bea,0,67,1737652930232,question,16,personal,What do you value most in a friendship?,"I value genuine kindness and honesty in a friendship. The best friend is a person who has a heart for God first then their fellow man, including themselves. True, genuine friendship is extremely rare. ",121906,1608055
wyeksu1g57,66352b3548c5c04337d41fa8,678f3deb09bb611973ef0351,6792740b07602d7c91e6e6a8,0,17,1737651581963,question,213,small talk,Do you enjoy staying in hotels? What do you like or not like about them?,I enjoy staying in hotels if it is a interesting theme. There is just something special about them. A mini adventure.The ammentities that some have are items that Imay or may not read.,122216,331871
wyeksu1g57,66352b3548c5c04337d41fa8,678f3deb09bb611973ef0351,6792740b07602d7c91e6e6a8,0,30,1737651830441,question,164,small talk,What is the last concert or performance you saw? Had you seen the band or performer before? Where?,The last concert that I attended was a hip hop concert. It was staged outside in a casuno area. Was a very fun experience. I   do not go out too often.,129151,580349
wyeksu1g57,66352b3548c5c04337d41fa8,678f3deb09bb611973ef0351,6792740b07602d7c91e6e6a8,0,41,1737652491490,question,234,small talk,Describe the weather where you are currently. Is this unusual weather for this time of year?,The weather where I am at is cool and cold. This part of my state can get very cold in the winter months. We dont have a regular season just hot and cold.E Nino times here can bring unusual weather systems.,126093,1241399
wyeksu1g57,66352b3548c5c04337d41fa8,678f3deb09bb611973ef0351,6792740b07602d7c91e6e6a8,0,52,1737652716913,question,41,personal,"If you were given the chance to relive any day in your life, do you know which day it would be? What happened?"," I would love to experience the day we met our child. It was such a beautiful experience. That day is a memory now, but what a moment it was. Amazing actually!",123861,1466822
wyeksu1g57,66352b3548c5c04337d41fa8,678f3deb09bb611973ef0351,6792740b07602d7c91e6e6a8,0,66,1737652904388,question,83,personal,Is there something about you that you struggle to admit to yourself or confront? Why?,"I struggle with admitting to muself that things are ok and mean it. I can be negative at times, hard to look at the brighter picture",124782,1654297
wyeksu1g57,66352b3548c5c04337d41fa8,678f3deb09bb611973ef0351,6792740b07602d7c91e6e6a8,0,68,1737653108452,question,65,personal,What seemingly ordinary moment in your life turned out to be a major turning point?,A small moment that was actually a huge moment. The day I met my husband was so normal and sweet. I had met the man I was going to  marry. ,191044,1858361
2h82ytv1ok,5a6725d4c0d836000107f6e7,678f3deb09bb611973ef0351,67927430eab28f89dff88b55,0,3,1737651580645,question,192,small talk,What is the best pair of shoes you own or have owned? What makes them awesome?,"I have a good few pairs of skechers but one pair stands out, they are arch fit and fit my feet perfectly, I love the colour black and white used. I can walk forever in them without pain. I love them.",123912,317062
2h82ytv1ok,5a6725d4c0d836000107f6e7,678f3deb09bb611973ef0351,67927430eab28f89dff88b55,0,11,1737651784840,question,16,personal,What do you value most in a friendship?,"A friend who acepts me as I am, no matter how im feeling or them at the time, I love a friend who is up for a good chat and laugh, someone who is there for you when you need someone. A person who does not judge you or gossip about others in a bad way. ",151916,521257
2h82ytv1ok,5a6725d4c0d836000107f6e7,678f3deb09bb611973ef0351,67927430eab28f89dff88b55,0,14,1737651929920,question,83,personal,Is there something about you that you struggle to admit to yourself or confront? Why?,"Yes I talk to much and sometimes finish other people conversations, people say I do this quite often but I tell them they are to slow to get to the point, but now I try to wait and listen until the end.",130248,666337
2h82ytv1ok,5a6725d4c0d836000107f6e7,678f3deb09bb611973ef0351,67927430eab28f89dff88b55,0,18,1737652086117,question,198,small talk,"Do you know any party tricks? If so, describe them. If not, describe one you would like to learn.",A trick were you have to fold a tee shirt perfectly to get free drinks. loser buys them.,137547,822534
